Data,AccX,AccY,AccZ,GyroX,GyroY,GyroZ
06/08/2023 19:40:01,-1.11,2.42,-0.04,-0.03,-0.02,-0.01
06/08/2023 19:40:01,-1.01,2.72,0.21,-0.02,0.04,-0.02
06/08/2023 19:40:02,-0.10,2.31,-0.23,0.02,-0.04,-0.01
06/08/2023 19:40:02,-0.96,2.68,0.01,-0.01,0.08,-0.02
06/08/2023 19:40:03,-0.88,2.81,-0.2,-0.02,-0.01,-0.01
06/08/2023 19:40:03,-0.91,2.83,-0.04,-0.01,0,-0.01
06/08/2023 19:40:04,-1.24,2.97,0.18,0,-0.04,-0.01
06/08/2023 19:40:04,-0.95,2.85,-0.6,-0.02,0.02,-0.02
06/08/2023 19:40:05,-0.44,2.86,0.23,0.01,-0.09,0
06/08/2023 19:40:05,-1.07,2.04,-0.24,-0.03,-0.02,-0.02
06/08/2023 19:40:06,-0.65,1.73,-0.08,-0.01,0.08,-0.02
06/08/2023 19:40:06,-0.76,1.57,0.38,0.01,0.04,-0.01
06/08/2023 19:40:07,-0.65,1.02,0.19,-0.01,0.01,-0.02
06/08/2023 19:40:07,-0.54,0.71,0.56,0.02,0.01,-0.02
06/08/2023 19:40:08,-0.87,0.25,0.36,-0.03,0.02,-0.04
06/08/2023 19:40:08,-0.73,0.24,0.27,-0.01,0.01,-0.02
06/08/2023 19:40:09,-0.71,0.57,0.56,-0.01,0.02,-0.03
06/08/2023 19:40:09,-0.82,0.3,0.63,0,0.03,-0.03
06/08/2023 19:40:10,-0.88,1.85,0.03,0.01,0.01,-0.02
06/08/2023 19:40:10,-0.36,2.49,0.17,0,-0.04,-0.11
06/08/2023 19:40:11, 1.19,2.16,0.15,0.01,-0.05,-0.33
06/08/2023 19:40:11, 2.26,2.09,0.3,0,-0.08,-0.51
06/08/2023 19:40:12, 2.80,2.35,0.59,0,-0.09,-0.6
06/08/2023 19:40:12, 2.60,3.69,0.53,0.03,-0.18,-0.59
06/08/2023 19:40:13, 1.49,3.38,-0.36,-0.02,-0.02,-0.43
06/08/2023 19:40:13, 0.63,4.13,1.54,0.09,0.02,-0.17
06/08/2023 19:40:14, 0.88,3.39,-0.68,0,-0.02,-0.07
06/08/2023 19:40:14, 0.06,3.44,-0.62,0,-0.03,-0.03
06/08/2023 19:40:15,-0.43,3.3,-0.11,0,-0.02,-0.04
06/08/2023 19:40:15,-0.18,3.3,0.03,0,0.07,-0.03
06/08/2023 19:40:16,-0.33,3.22,-0.17,0.02,0.02,-0.02
06/08/2023 19:40:16,-0.43,2.33,0.23,-0.02,0.03,-0.02
06/08/2023 19:40:17,-0.56,1.86,0.23,-0.01,0.01,-0.02
06/08/2023 19:40:17,-0.40,1.02,0.22,-0.02,0.03,-0.02
06/08/2023 19:40:18,-0.19,0.77,0.56,-0.01,0.08,-0.05
06/08/2023 19:40:18,-0.40,1.19,0.4,0.02,-0.03,-0.04
06/08/2023 19:40:19,-0.45,1.32,-0.11,-0.04,0.04,-0.04
06/08/2023 19:40:19,-0.46,1.73,0.05,-0.03,0.03,-0.02
06/08/2023 19:40:20,-0.68,2,0.17,-0.05,0.05,0.02
06/08/2023 19:40:20,-0.52,1.51,0.1,-0.01,0.04,0.03
06/08/2023 19:40:21,-0.84,1.69,0.21,-0.01,0.02,0.03
06/08/2023 19:40:21,-0.71,2.34,0.4,0.02,0,0.02
06/08/2023 19:40:22,-0.39,1.44,0.02,-0.02,0.02,-0.01
06/08/2023 19:40:22,-0.25,1.74,0.81,0,0.03,-0.04
06/08/2023 19:40:23,-0.47,1.19,0.38,0.01,0.03,-0.03
06/08/2023 19:40:23,-0.65,2.52,0.24,0.01,0.02,-0.04
06/08/2023 19:40:24,-0.14,3.16,-0.47,0.02,0,-0.03
06/08/2023 19:40:24,-0.80,3.01,-0.48,-0.09,0.02,0.01
06/08/2023 19:40:25,-0.86,3.86,0.63,-0.08,0.07,0.01
06/08/2023 19:40:25,-0.56,4.44,1.26,-0.01,0.02,-0.01
06/08/2023 19:40:26,-0.14,4.37,0.47,0.06,-0.02,-0.04
06/08/2023 19:40:26,-0.04,4.5,0.13,0.01,0.07,-0.06
06/08/2023 19:40:27,-0.33,3.57,-1.35,0.02,0.01,-0.04
06/08/2023 19:40:27,-0.44,2.65,0.57,-0.02,0.03,-0.02
06/08/2023 19:40:28,-0.53,2.63,0.22,0.01,0.02,-0.02
06/08/2023 19:40:28,-0.47,3.33,-0.43,-0.09,0.06,-0.02
06/08/2023 19:40:29,-0.05,3.71,-0.78,-0.01,-0.04,-0.02
06/08/2023 19:40:29,-0.13,3.78,-0.09,0.03,0.03,-0.03
06/08/2023 19:40:30,-0.62,3.34,-1.21,-0.08,0,-0.02
06/08/2023 19:40:30, 0.13,3.47,0.41,0.09,0.14,-0.03
06/08/2023 19:40:31,-0.91,3.29,-0.67,0.03,-0.13,0.01
06/08/2023 19:40:31,-1.16,2.58,0.35,-0.01,0.04,-0.01
06/08/2023 19:40:32, 0.66,2.2,0.21,-0.07,0.08,-0.06
06/08/2023 19:40:32,-0.54,2.25,0.1,-0.04,0.01,-0.03
06/08/2023 19:40:33,-0.62,2.72,1.65,0.02,-0.1,-0.03
06/08/2023 19:40:33,-1.37,1.76,0.63,-0.01,0,0.03
06/08/2023 19:40:34,-0.90,1.37,-0.11,0,0.03,0
06/08/2023 19:40:34,-0.33,0.88,0.33,-0.02,0.09,-0.03
06/08/2023 19:40:35,-0.62,1.2,1.42,0.03,0.17,-0.02
06/08/2023 19:40:35,-1.23,0.04,-0.67,0.02,-0.09,0
06/08/2023 19:40:36,-0.49,-0.21,2.08,-0.03,-0.01,0.03
06/08/2023 19:40:36,-0.98,2.27,-0.95,-0.02,-0.16,-0.01
06/08/2023 19:40:37,-1.02,1.64,-1.02,-0.11,-0.03,0
06/08/2023 19:40:37,-0.62,4.09,2.61,-0.01,0.02,-0.02
06/08/2023 19:40:38, 0.06,2.46,0.12,0.09,0.09,-0.02
06/08/2023 19:40:38, 0.35,3.37,-0.58,-0.04,-0.03,0.01
06/08/2023 19:40:39,-0.31,4.11,-1.8,-0.09,-0.04,-0.01
06/08/2023 19:40:39,-1.53,3.08,-1.85,0.19,0.02,-0.06
06/08/2023 19:40:40,-0.93,3.13,-2.53,-0.03,-0.07,-0.01
06/08/2023 19:40:40,-0.12,2.49,0.42,0.15,-0.01,-0.03
06/08/2023 19:40:41,-0.96,4.04,-0.08,-0.37,0.06,-0.08
06/08/2023 19:40:41,-0.27,4.37,0.47,0.17,-0.04,0
06/08/2023 19:40:42, 0.08,3.16,-0.93,0.06,0.04,0
06/08/2023 19:40:42,-0.59,3.42,-1.79,-0.04,-0.02,0
06/08/2023 19:40:43,-0.66,3.67,-0.78,-0.01,-0.02,-0.02
06/08/2023 19:40:43,-0.39,4.13,-0.5,-0.01,-0.01,-0.02
06/08/2023 19:40:44,-0.19,3.7,-0.76,0.01,0.01,-0.01
06/08/2023 19:40:44,-0.12,3.68,-0.37,-0.03,0,-0.02
06/08/2023 19:40:45,-0.34,2.5,-0.04,-0.01,0,-0.03
06/08/2023 19:40:45,-0.30,2.21,-0.18,0.03,0.07,-0.02
06/08/2023 19:40:46,-0.35,1.81,-0.15,0.03,-0.01,0.01
06/08/2023 19:40:46,-0.23,2.3,0.11,0.03,0.08,-0.02
06/08/2023 19:40:47,-0.35,1.32,-0.18,-0.05,-0.02,-0.02
06/08/2023 19:40:47,-0.37,0.62,-0.06,-0.02,0.04,-0.02
06/08/2023 19:40:48,-0.57,0.87,0.29,-0.03,0.03,-0.02
06/08/2023 19:40:48,-0.49,0.79,0.97,-0.03,0.08,-0.04
06/08/2023 19:40:49,-0.92,1.78,0.19,-0.02,0.04,-0.01
06/08/2023 19:40:49,-0.60,4.16,1.01,0,0.03,-0.01
06/08/2023 19:40:50,-1.05,3.99,0.01,-0.03,-0.02,0
06/08/2023 19:40:50,-0.50,4.25,-0.09,-0.06,0.04,0.01
06/08/2023 19:40:51, 0.44,3.89,-0.47,0.02,0.12,-0.03
06/08/2023 19:40:51,-0.53,3.79,-0.66,-0.01,-0.01,-0.02
06/08/2023 19:40:52, 0.09,2.51,0.51,0,-0.01,-0.05
06/08/2023 19:40:52,-0.44,1.95,0.3,0.03,-0.02,-0.04
06/08/2023 19:40:53,-0.45,1.99,0.16,0.03,0.06,-0.03
06/08/2023 19:40:53,-0.79,1.73,-0.04,-0.01,0.05,0
06/08/2023 19:40:54,-0.39,1.89,0.52,-0.01,0.05,-0.01
06/08/2023 19:40:54,-0.72,1.95,0.42,0.02,-0.04,0.01
06/08/2023 19:40:55,-0.45,2.29,0.18,0,0,0.01
06/08/2023 19:40:55,-0.57,2.48,0.09,0,0.04,0
06/08/2023 19:40:56,-0.38,1.83,0.02,-0.01,0.01,-0.02
06/08/2023 19:40:56,-0.61,1.78,0.74,-0.01,0.01,-0.02
06/08/2023 19:40:57,-0.21,2.1,0.15,0.09,0.02,-0.03
06/08/2023 19:40:57,-0.45,2.31,-0.51,-0.06,-0.03,-0.03
06/08/2023 19:40:58,-0.39,3.02,-0.31,0.04,0.01,-0.01
06/08/2023 19:40:58,-0.61,2.92,0.49,-0.01,0.04,-0.01
06/08/2023 19:40:59,-0.01,3.24,-0.26,-0.06,0.07,-0.03
06/08/2023 19:40:59,-1.12,2.23,-0.04,0.01,0.02,-0.02
06/08/2023 19:41:00, 0.10,2.61,-0.51,-0.01,0,-0.03
06/08/2023 19:41:00, 0.22,2.64,-0.58,0,0.06,-0.04
06/08/2023 19:41:01,-0.10,2.67,-0.41,0.02,0.08,-0.03
06/08/2023 19:41:01,-0.22,2.83,-0.02,0.01,0.03,-0.02
06/08/2023 19:41:02,-0.39,2.8,0.09,-0.01,0.04,-0.02
06/08/2023 19:41:02,-0.41,2.75,0.12,0,0.01,-0.02
06/08/2023 19:41:03,-0.41,2.86,-0.08,0.01,0.02,-0.01
06/08/2023 19:41:03,-0.13,2.58,0.08,-0.01,0.03,-0.01
06/08/2023 19:41:04,-0.24,2.46,0.1,-0.02,0.04,-0.01
06/08/2023 19:41:04, 0.11,2.41,-0.01,-0.01,0.01,-0.01
06/08/2023 19:41:05,-0.19,2.23,0.11,-0.03,-0.01,0
06/08/2023 19:41:05,-0.34,2.2,0.38,-0.01,0.01,-0.01
06/08/2023 19:41:06,-0.08,2.13,-0.05,0,0,-0.02
06/08/2023 19:41:06, 0.04,2.24,0,0,0,-0.02
06/08/2023 19:41:07,-0.11,2.27,0.25,0,0.02,-0.02
06/08/2023 19:41:07,-0.06,2.3,0.02,-0.01,0.02,-0.02
06/08/2023 19:41:08,-0.09,2.28,0.16,-0.01,0.04,-0.02
06/08/2023 19:41:08,-0.14,2.32,0.13,-0.01,0.01,-0.02
06/08/2023 19:41:09,-0.15,2.39,0.12,-0.01,0.02,-0.02
06/08/2023 19:41:09,-0.11,2.32,0.09,-0.01,0.02,-0.02
06/08/2023 19:41:10,-0.13,3.04,-0.04,0.01,0.03,-0.02
06/08/2023 19:41:10,-0.08,2.92,-0.13,0,0.03,-0.02
06/08/2023 19:41:11,-0.07,2.89,-0.08,-0.01,0.02,-0.02
06/08/2023 19:41:11,-0.06,2.92,-0.08,-0.01,0.02,-0.02
06/08/2023 19:41:12,-0.08,2.93,-0.07,-0.01,0.02,-0.02
06/08/2023 19:41:12,-0.10,2.94,-0.07,-0.01,0.02,-0.02
06/08/2023 19:41:13,-0.12,2.94,-0.05,-0.01,0.02,-0.02
06/08/2023 19:41:13,-0.09,2.94,-0.07,0,0.02,-0.02
06/08/2023 19:41:14,-0.13,2.95,-0.05,-0.01,0.02,-0.02
06/08/2023 19:41:14,-0.11,2.94,-0.03,-0.01,0.02,-0.02
06/08/2023 19:41:15,-0.09,2.95,-0.07,-0.01,0.02,-0.02
06/08/2023 19:41:15,-0.11,2.95,-0.05,-0.01,0.02,-0.02
06/08/2023 19:41:16,-0.09,2.91,-0.07,0,0.02,-0.02
06/08/2023 19:41:16,-0.07,2.89,-0.09,-0.01,0.03,-0.02
06/08/2023 19:41:17,-0.04,2.9,-0.07,-0.01,0.02,-0.02
06/08/2023 19:41:17,-0.08,2.89,-0.1,-0.01,0.02,-0.02
06/08/2023 19:41:18,-0.06,2.9,-0.1,-0.01,0.02,-0.02
06/08/2023 19:41:18,-0.06,2.92,-0.07,-0.01,0.02,-0.02
06/08/2023 19:41:19,-0.08,2.94,-0.06,-0.01,0.02,-0.02
06/08/2023 19:41:19,-0.07,2.94,-0.09,-0.01,0.02,-0.02
06/08/2023 19:41:20,-0.09,2.93,-0.05,-0.01,0.02,-0.02
06/08/2023 19:41:20,-0.08,2.95,-0.05,-0.01,0.02,-0.02
06/08/2023 19:41:21,-0.11,2.94,-0.05,-0.01,0.02,-0.02
06/08/2023 19:41:21,-0.10,2.94,-0.05,-0.01,0.02,-0.02
06/08/2023 19:41:22,-0.09,2.95,-0.06,0,0.02,-0.02
06/08/2023 19:41:22,-0.12,2.93,-0.05,-0.01,0.02,-0.02
06/08/2023 19:41:23,-0.13,2.76,-0.01,0,0.03,-0.02
06/08/2023 19:41:23,-0.23,3.34,-0.1,0,0.02,-0.02
06/08/2023 19:41:24,-0.10,4.05,-0.39,-0.01,0.02,-0.02
06/08/2023 19:41:24,-0.02,4.19,-0.34,0,0.02,-0.02
06/08/2023 19:41:25,-0.06,2.48,0.02,0.01,-0.01,-0.02
06/08/2023 19:41:25,-0.15,2.44,0.06,-0.02,0.03,-0.02
06/08/2023 19:41:26,-0.10,4.39,-0.22,0.03,0.04,-0.02
06/08/2023 19:41:26,-0.07,4.33,-0.37,0,0.04,-0.02
06/08/2023 19:41:27,-0.41,4.81,-0.56,-0.01,0.02,-0.03
06/08/2023 19:41:27,-0.20,1.39,0.16,-0.05,0.04,-0.02
06/08/2023 19:41:28,-0.21,5.17,-0.59,0.02,0.01,-0.01
06/08/2023 19:41:28,-0.19,4.07,-0.53,0,0.02,-0.02
06/08/2023 19:41:29,-0.25,2.44,-0.23,0.01,0.04,-0.02
06/08/2023 19:41:29,-0.29,3.68,-0.14,0.04,0.01,-0.02
06/08/2023 19:41:30,-0.00,2.82,0.34,-0.06,0.04,-0.01
06/08/2023 19:41:30,-0.22,1.89,0.71,-0.06,0.05,-0.01
06/08/2023 19:41:31,-0.23,2.81,-0.05,-0.03,0.03,-0.02
06/08/2023 19:41:31, 0.17,3.96,-0.47,0.01,-0.01,-0.03
06/08/2023 19:41:32, 0.05,2.42,0.23,0.03,0.04,-0.01
06/08/2023 19:41:32,-0.19,2.51,0.36,0.02,-0.03,-0.02
06/08/2023 19:41:33,-0.28,1.94,0.4,-0.02,0,-0.01
06/08/2023 19:41:33,-0.33,2.48,-0.11,0.01,0.04,0
06/08/2023 19:41:34,-0.03,2.3,0.24,-0.02,0.02,0.01
06/08/2023 19:41:34,-0.58,2.72,-0.02,0.02,0.06,0.01
06/08/2023 19:41:35, 0.11,3.15,0.21,-0.02,-0.01,0.03
06/08/2023 19:41:35,-0.63,2.81,-0.13,-0.07,0.07,0.02
06/08/2023 19:41:36, 0.08,3.43,-0.52,-0.01,0.05,0.01
06/08/2023 19:41:36,-0.69,2.17,0.02,0.01,0.02,0.02
06/08/2023 19:41:37,-0.51,2.35,0.25,0.02,0.05,0.02
06/08/2023 19:41:37,-0.56,3.6,0.38,0.02,0.01,0.08
06/08/2023 19:41:38,-0.78,2.06,-0.19,-0.02,0.07,0.08
06/08/2023 19:41:38,-0.45,1.86,0.21,0,0.03,0.12
06/08/2023 19:41:39,-0.89,2.45,0.04,-0.04,0.07,0.17
06/08/2023 19:41:39,-0.80,3.07,-0.08,-0.05,0.12,0.25
06/08/2023 19:41:40,-1.02,3.5,-0.32,-0.02,0.12,0.31
06/08/2023 19:41:40,-1.82,3.64,-0.27,-0.02,0.12,0.4
06/08/2023 19:41:41,-1.47,3.44,-0.39,0,0.09,0.39
06/08/2023 19:41:41,-1.41,3.38,-0.57,-0.04,0.12,0.26
06/08/2023 19:41:42,-0.84,3.37,-0.34,0,0.09,0.14
06/08/2023 19:41:42,-0.64,3.02,-0.47,-0.01,0.04,0.06
06/08/2023 19:41:43,-0.55,2.26,-0.13,-0.05,-0.01,0.02
06/08/2023 19:41:43,-0.14,2.55,0.08,0.03,-0.01,-0.03
06/08/2023 19:41:44,-0.42,2.29,0.14,0,0.01,-0.05
06/08/2023 19:41:44,-0.73,2.09,0.14,-0.03,-0.01,-0.04
06/08/2023 19:41:45,-0.42,1.5,0.35,0.02,0.04,-0.04
06/08/2023 19:41:45,-0.58,1.39,0.75,0.04,0.07,-0.04
06/08/2023 19:41:46,-0.23,1.55,-0.23,0.04,-0.01,-0.01
06/08/2023 19:41:46,-0.57,1.7,0.24,-0.01,0.02,-0.03
06/08/2023 19:41:47,-0.41,1.87,0.06,0.02,0,-0.01
06/08/2023 19:41:47,-0.44,2.3,0.68,-0.02,0.01,-0.03
06/08/2023 19:41:48,-0.28,2.33,0.16,-0.02,0.04,-0.02
06/08/2023 19:41:48,-0.33,2.3,-0.1,0,0,-0.01
06/08/2023 19:41:49,-0.31,2.33,0,-0.01,0.03,-0.02
06/08/2023 19:41:49,-0.55,4.07,0.05,0,0.02,-0.02
06/08/2023 19:41:50,-0.43,5.47,-1.16,0,0.02,-0.01
06/08/2023 19:41:50,-0.70,3.43,-0.2,-0.04,0,-0.02
06/08/2023 19:41:51,-0.38,5.02,0.15,0.1,0.08,-0.02
06/08/2023 19:41:51,-0.40,5.77,-0.77,0.11,0.03,-0.02
06/08/2023 19:41:52,-0.34,2.8,0.54,-0.04,0.06,-0.03
06/08/2023 19:41:52,-0.30,2.68,-2.44,0.06,0.01,-0.01
06/08/2023 19:41:53,-0.69,3.22,-0.15,-0.09,-0.06,-0.02
06/08/2023 19:41:53,-0.39,3.97,-0.16,-0.05,0.01,-0.03
06/08/2023 19:41:54, 0.16,3.85,-0.76,-0.04,-0.01,-0.03
06/08/2023 19:41:54,-0.12,3.05,0.07,-0.06,0.04,-0.02
06/08/2023 19:41:55, 0.13,2.7,0.54,0.02,0.05,-0.03
06/08/2023 19:41:55,-0.12,2.78,-0.45,0.01,0.12,-0.06
06/08/2023 19:41:56,-0.21,3.16,-0.92,0,0.08,-0.03
06/08/2023 19:41:56,-0.39,2.63,-0.14,-0.02,0,-0.03
06/08/2023 19:41:57,-0.25,2.7,0.65,-0.04,0.08,-0.05
06/08/2023 19:41:57,-1.15,2.65,-0.21,0,0.02,-0.04
06/08/2023 19:41:58,-0.39,3.38,0.48,-0.07,-0.05,-0.04
06/08/2023 19:41:58,-0.53,2.61,-0.41,0.06,0,-0.03
06/08/2023 19:41:59,-1.18,3.11,-0.11,0.01,0.03,0.01
06/08/2023 19:41:59,-1.00,2.27,-0.48,-0.01,0.01,-0.01
06/08/2023 19:42:00,-0.62,1.99,-0.37,0.03,0.03,-0.01
06/08/2023 19:42:00,-0.31,1.64,-1.05,-0.02,-0.05,-0.03
06/08/2023 19:42:01,-0.61,3.12,0.9,0.04,0.06,0
06/08/2023 19:42:01,-1.22,2.85,0.18,-0.04,0.05,0.01
06/08/2023 19:42:02,-0.21,2.58,-0.08,-0.04,0.02,-0.05
06/08/2023 19:42:02, 0.05,3.5,0.15,-0.01,0,-0.08
06/08/2023 19:42:03, 0.20,3.58,-0.17,0,-0.07,-0.05
06/08/2023 19:42:03, 0.15,2.12,-0.77,-0.08,0.04,-0.06
06/08/2023 19:42:04,-0.20,3.81,-0.06,0.1,-0.03,-0.04
06/08/2023 19:42:04,-0.09,3.07,-0.67,0.08,0.09,-0.01
06/08/2023 19:42:05, 0.04,3.06,-0.82,0.01,0,-0.01
06/08/2023 19:42:05, 0.00,3.17,-1.16,-0.03,0.07,-0.02
06/08/2023 19:42:06,-0.76,3.2,-0.27,0.03,0.01,-0.01
06/08/2023 19:42:06,-0.02,2.86,-0.52,-0.03,0.03,-0.03
06/08/2023 19:42:07, 0.01,2.38,-0.45,-0.05,0.02,-0.05
06/08/2023 19:42:07,-0.57,2.31,0.03,-0.07,0.05,-0.03
06/08/2023 19:42:08,-0.37,2.5,0.01,-0.05,0.03,-0.03
06/08/2023 19:42:08,-0.49,3.12,-0.12,-0.02,-0.05,-0.03
06/08/2023 19:42:09,-0.31,3.23,0.51,-0.05,-0.05,-0.03
06/08/2023 19:42:09, 0.16,2.92,0.2,-0.07,0.07,-0.06
06/08/2023 19:42:10,-0.09,2.35,-1.05,-0.07,-0.02,-0.04
06/08/2023 19:42:10,-0.29,2.21,0.18,-0.04,0.02,-0.04
06/08/2023 19:42:11,-0.22,2.67,0.09,-0.03,0.04,-0.03
06/08/2023 19:42:11,-0.72,2.57,0.62,-0.08,-0.01,-0.01
06/08/2023 19:42:12,-0.72,2.55,0.55,-0.05,0.02,-0.03
06/08/2023 19:42:12,-0.70,2.16,0.09,-0.02,-0.01,-0.03
06/08/2023 19:42:13,-0.45,2.54,0.22,-0.06,0.07,-0.03
06/08/2023 19:42:13,-0.23,2.8,0.5,-0.02,0.01,-0.01
06/08/2023 19:42:14,-0.03,2.15,-2.45,0.04,0.09,-0.02
06/08/2023 19:42:14,-0.08,1.11,-4.44,-0.03,0.01,-0.01
06/08/2023 19:42:15,-0.40,2.41,-0.43,0,0.02,-0.01
06/08/2023 19:42:15,-0.78,2.75,0.03,0.02,-0.09,0.01
06/08/2023 19:42:16,-0.72,2.83,0.36,-0.03,0.05,-0.01
06/08/2023 19:42:16,-0.47,2.75,0.78,-0.02,0.06,-0.03
06/08/2023 19:42:17,-0.84,3.25,1.5,0.07,-0.02,-0.01
06/08/2023 19:42:17,-0.64,2.54,-0.06,0.03,0.02,-0.01
06/08/2023 19:42:18,-0.37,2.06,-0.17,-0.03,-0.08,-0.01
06/08/2023 19:42:18,-0.91,2.73,0.71,0.03,-0.02,-0.01
06/08/2023 19:42:19,-0.65,1.81,-0.05,-0.04,-0.01,-0.01
06/08/2023 19:42:19,-0.70,2.48,0.59,-0.01,0.09,-0.02
06/08/2023 19:42:20,-0.69,2.58,0.3,-0.03,0.12,-0.02
06/08/2023 19:42:20,-0.67,3.11,0.35,-0.03,0.03,-0.01
06/08/2023 19:42:21,-0.49,2.48,-0.03,-0.02,0,-0.02
06/08/2023 19:42:21, 0.11,2.65,-0.81,-0.07,0.02,-0.01
06/08/2023 19:42:22,-0.56,2.31,-0.22,-0.07,0.01,-0.02
06/08/2023 19:42:22,-0.19,2.97,-0.47,-0.09,0.11,-0.05
06/08/2023 19:42:23,-0.14,3.16,0.79,0.02,-0.05,-0.02
06/08/2023 19:42:23,-0.25,2.66,0.28,-0.01,-0.08,-0.01
06/08/2023 19:42:24,-0.61,2.78,0.57,-0.01,0.02,-0.02
06/08/2023 19:42:24,-0.74,3.05,-0.17,-0.02,0.05,-0.01
06/08/2023 19:42:25,-0.48,2.83,-0.26,-0.07,0.03,0
06/08/2023 19:42:25,-0.85,2.19,-0.54,-0.08,0.01,0
06/08/2023 19:42:26,-0.33,2.41,-0.26,-0.01,0.05,-0.02
06/08/2023 19:42:26,-0.81,2.81,-0.75,0,0.06,-0.02
06/08/2023 19:42:27,-0.11,2.87,0.24,-0.03,0,-0.03
06/08/2023 19:42:27,-0.33,2.59,-0.09,0,0.02,-0.01
06/08/2023 19:42:28,-0.01,2.75,0,0.1,-0.01,-0.02
06/08/2023 19:42:28,-0.25,2.59,0.46,0.02,0.06,-0.02
06/08/2023 19:42:29,-0.38,2.41,-0.29,0.03,0,-0.02
06/08/2023 19:42:29,-0.30,2.27,0.01,-0.01,0.06,-0.02
06/08/2023 19:42:30,-0.26,2.52,0.24,-0.05,0.03,-0.01
06/08/2023 19:42:30,-0.17,2.42,0.5,0,0.05,-0.04
06/08/2023 19:42:31,-0.17,2.12,-0.18,-0.08,0.08,-0.02
06/08/2023 19:42:31,-0.42,2.23,0.2,-0.08,0.03,-0.01
06/08/2023 19:42:32,-0.83,2.18,0.18,-0.09,0.03,-0.01
06/08/2023 19:42:32,-0.58,2.1,0.55,-0.05,0.04,0
06/08/2023 19:42:33,-0.77,2.24,0.58,-0.02,0.01,0.01
06/08/2023 19:42:33, 0.17,2.24,-1.2,-0.05,0.1,-0.03
06/08/2023 19:42:34,-0.37,2.5,-0.75,-0.05,0.06,0
06/08/2023 19:42:34,-0.61,2.57,0.29,0.02,0.11,-0.01
06/08/2023 19:42:35,-0.45,2.49,0.37,-0.01,0.01,0
06/08/2023 19:42:35,-0.80,2.38,0.6,-0.02,0.02,0
06/08/2023 19:42:36,-0.66,1.83,0.05,-0.07,0.08,-0.02
06/08/2023 19:42:36,-0.74,1.64,-0.33,-0.03,-0.07,0
06/08/2023 19:42:37,-0.83,1.95,0.24,-0.07,0.06,-0.01
06/08/2023 19:42:37,-0.78,1.99,-0.03,-0.03,0.04,-0.01
06/08/2023 19:42:38,-0.48,2.65,0.34,0.02,0.02,0
06/08/2023 19:42:38,-1.01,2.42,0.02,0.03,0.03,0
06/08/2023 19:42:39,-0.27,2.31,-1.15,-0.02,0.11,-0.01
06/08/2023 19:42:39, 0.06,2.76,-0.7,-0.04,0.05,-0.02
06/08/2023 19:42:40,-0.31,2.88,0.14,-0.04,0.06,0.01
06/08/2023 19:42:40,-0.40,2.16,0.63,0.06,0.08,0
06/08/2023 19:42:41,-1.05,1.63,-0.06,-0.03,-0.07,0.01
06/08/2023 19:42:41,-0.77,2.81,-0.72,-0.04,0.07,0.01
06/08/2023 19:42:42,-0.94,3.57,-0.04,0.03,-0.04,0.03
06/08/2023 19:42:42,-0.85,2.58,0.95,-0.04,0.08,0
06/08/2023 19:42:43,-0.13,2.73,0.38,0,0.04,-0.02
06/08/2023 19:42:43,-1.05,2.45,-0.45,-0.03,0.02,0.02
06/08/2023 19:42:44,-0.50,2.92,-0.2,0,-0.01,0
06/08/2023 19:42:44,-0.21,2.47,0.34,0.02,0.02,-0.01
06/08/2023 19:42:45,-0.37,2.81,-0.84,-0.01,-0.02,-0.01
06/08/2023 19:42:45,-0.37,3.45,-0.56,-0.01,-0.02,-0.02
06/08/2023 19:42:46,-1.13,3.34,2.63,0.11,0.05,-0.01
06/08/2023 19:42:46,-0.33,3.07,0.52,0.05,0.08,-0.01
06/08/2023 19:42:47,-0.50,3.36,0.2,0.03,0.03,-0.01
06/08/2023 19:42:47,-0.81,3.24,-0.17,-0.01,0.02,-0.01
06/08/2023 19:42:48,-0.24,2.95,-0.42,-0.04,0.05,-0.01
06/08/2023 19:42:48,-1.43,2.17,0.58,-0.06,0.07,-0.01
06/08/2023 19:42:49,-0.60,1.21,0.29,-0.07,0.05,-0.01
06/08/2023 19:42:49,-0.27,0.68,-0.11,-0.04,0.07,-0.01
06/08/2023 19:42:50,-0.59,0.26,0.03,0.03,0,-0.02
06/08/2023 19:42:50,-0.40,1.87,0.93,-0.01,0.06,-0.02
06/08/2023 19:42:51,-0.35,1.77,0.3,-0.01,0.03,-0.02
06/08/2023 19:42:51, 0.12,1.76,0.77,0.01,0.03,-0.03
06/08/2023 19:42:52,-0.14,1.75,-0.5,0,0.04,-0.02
06/08/2023 19:42:52,-0.20,1.47,0.92,-0.05,0.04,-0.02
06/08/2023 19:42:53,-0.44,1.5,0.75,0,-0.01,-0.02
06/08/2023 19:42:53,-0.89,1.32,1.23,0.01,0.01,-0.03
06/08/2023 19:42:54,-0.56,1.46,0.32,-0.03,-0.03,-0.02
06/08/2023 19:42:54,-0.30,1.68,-0.11,-0.01,0.05,-0.02
06/08/2023 19:42:55,-0.08,1.84,0.11,0.01,0.04,-0.01
06/08/2023 19:42:55,-0.21,1.82,0,-0.03,-0.01,-0.01
06/08/2023 19:42:56,-0.67,1.82,0.55,0,0.02,-0.02
06/08/2023 19:42:56,-0.57,2.06,1.02,0.03,0.09,-0.01
06/08/2023 19:42:57,-0.69,2.07,0.09,0,-0.01,-0.01
06/08/2023 19:42:57,-0.40,1.56,0.15,-0.02,0.02,-0.01
06/08/2023 19:42:58,-0.41,1.36,0.25,0,0.03,-0.03
06/08/2023 19:42:58,-0.59,1.36,0.34,-0.02,0.03,-0.01
06/08/2023 19:42:59,-0.46,1.89,0.1,0,0.02,-0.02
06/08/2023 19:42:59,-0.45,2.02,0.06,-0.01,0.02,-0.02
06/08/2023 19:43:00,-0.50,2.01,0.18,-0.01,0.02,-0.01
06/08/2023 19:43:00,-0.48,2.72,0.04,0,0.02,-0.02
06/08/2023 19:43:01,-0.44,2.53,0,-0.01,0.02,-0.02
06/08/2023 19:43:01,-0.50,2.59,-0.01,-0.01,0.02,-0.02
06/08/2023 19:43:02,-0.47,2.55,0,-0.01,0.02,-0.02
06/08/2023 19:43:02,-0.46,2.57,0.01,-0.01,0.02,-0.02
06/08/2023 19:43:03,-0.50,2.56,-0.01,-0.01,0.02,-0.02
06/08/2023 19:43:03,-0.49,2.57,-0.02,-0.01,0.02,-0.02
06/08/2023 19:43:04,-0.51,2.57,0.03,-0.01,0.02,-0.02
06/08/2023 19:43:04,-0.47,2.6,0.01,-0.01,0.02,-0.02
06/08/2023 19:43:05,-0.50,2.6,0.03,0,0.02,-0.02
06/08/2023 19:43:05,-0.51,2.56,0,-0.01,0.02,-0.02
06/08/2023 19:43:06,-0.49,2.57,0,0,0.02,-0.02
06/08/2023 19:43:06,-0.51,2.57,0.01,0,0.02,-0.02
06/08/2023 19:43:07,-0.49,2.56,-0.01,0,0.02,-0.02
06/08/2023 19:43:07,-0.50,2.55,-0.01,0,0.02,-0.02
06/08/2023 19:43:08,-0.48,2.54,-0.02,-0.01,0.02,-0.02
06/08/2023 19:43:08,-0.47,2.55,-0.04,-0.01,0.02,-0.02
06/08/2023 19:43:09,-0.47,2.53,-0.04,-0.01,0.02,-0.02
06/08/2023 19:43:09,-0.45,2.54,-0.02,-0.01,0.02,-0.02
06/08/2023 19:43:10,-0.49,2.57,0,-0.01,0.02,-0.02
06/08/2023 19:43:10,-0.48,2.58,0,-0.01,0.02,-0.02
06/08/2023 19:43:11,-0.47,2.53,0,-0.01,0.02,-0.02
06/08/2023 19:43:11,-0.50,2.54,-0.01,-0.01,0.02,-0.02
06/08/2023 19:43:12,-0.47,2.56,-0.03,-0.01,0.02,-0.02
06/08/2023 19:43:12,-0.51,2.56,0.01,-0.01,0.02,-0.02
06/08/2023 19:43:13,-0.49,2.59,0.02,-0.01,0.02,-0.02
06/08/2023 19:43:13,-0.53,2.58,0.01,-0.01,0.02,-0.02
06/08/2023 19:43:14,-0.47,2.55,-0.01,0,0.02,-0.02
06/08/2023 19:43:14,-0.47,2.54,-0.01,-0.01,0.02,-0.02
06/08/2023 19:43:15,-0.45,2.55,-0.02,-0.01,0.02,-0.02
06/08/2023 19:43:15,-0.47,2.55,-0.02,-0.01,0.02,-0.02
06/08/2023 19:43:16,-0.50,2.57,-0.01,-0.01,0.02,-0.02
06/08/2023 19:43:16,-0.51,2.6,0.02,0,0.02,-0.02
06/08/2023 19:43:17,-0.49,3.44,-0.36,0.01,0.02,-0.02
06/08/2023 19:43:17,-0.35,5.89,-0.94,-0.01,0.04,-0.02
06/08/2023 19:43:18,-0.44,5.49,-0.77,0.01,0.01,-0.02
06/08/2023 19:43:18,-0.71,1.87,-0.13,-0.06,0.02,-0.01
06/08/2023 19:43:19,-0.47,4.7,0,0.01,0.03,-0.02
06/08/2023 19:43:19,-0.28,3.67,-0.25,0.01,0.02,-0.02
06/08/2023 19:43:20,-0.36,2.54,0.24,0,0.03,-0.02
06/08/2023 19:43:20,-0.05,4.56,-0.27,0.07,-0.03,-0.01
06/08/2023 19:43:21,-0.43,3.41,-0.51,-0.06,0.02,-0.02
06/08/2023 19:43:21,-0.31,3.7,-1.03,0.01,-0.02,-0.01
06/08/2023 19:43:22,-0.01,3.67,-0.57,-0.01,0.03,-0.02
06/08/2023 19:43:22,-0.43,3.51,-0.17,-0.03,0.03,-0.02
06/08/2023 19:43:23,-0.27,3.59,-0.03,-0.01,0.02,-0.02
06/08/2023 19:43:23,-0.51,3.47,-0.16,-0.04,-0.01,-0.01
06/08/2023 19:43:24,-0.29,2.73,0.45,-0.05,-0.01,-0.01
06/08/2023 19:43:24,-0.50,2.4,0.21,-0.04,0.02,-0.01
06/08/2023 19:43:25,-0.54,3.37,-0.22,-0.03,0.02,0.01
06/08/2023 19:43:25,-0.65,3.23,-0.06,0.03,0.05,0
06/08/2023 19:43:26,-1.13,3.6,1.66,0.1,0.01,0.03
06/08/2023 19:43:26,-0.58,3.35,0.18,0,0.1,0.02
06/08/2023 19:43:27,-0.40,2.82,0.04,0.04,-0.06,0.03
06/08/2023 19:43:27,-0.95,2.5,-0.81,0.04,0.1,0.01
06/08/2023 19:43:28,-1.10,1.86,-0.34,-0.03,-0.02,0.01
06/08/2023 19:43:28,-0.37,1.96,-0.03,-0.09,-0.01,-0.01
06/08/2023 19:43:29,-0.44,3.01,2.26,0.09,0.03,-0.02
06/08/2023 19:43:29,-0.92,2.36,0.77,0.05,0.03,-0.03
06/08/2023 19:43:30,-0.73,2.39,-0.32,0.01,0.01,-0.01
06/08/2023 19:43:30,-0.48,2.7,-0.11,-0.01,-0.02,0
06/08/2023 19:43:31,-0.32,3.31,-0.82,0.03,-0.02,0.02
06/08/2023 19:43:31,-0.79,3.28,0.98,0.09,0.08,0
06/08/2023 19:43:32,-0.47,2.51,0.35,0.08,0.02,0
06/08/2023 19:43:32,-0.27,2.58,-0.43,0.01,0.01,0
06/08/2023 19:43:33,-0.93,2.94,-0.05,-0.07,-0.06,0.01
06/08/2023 19:43:33,-0.45,2.86,-0.96,-0.05,-0.03,0
06/08/2023 19:43:34,-0.33,3.35,-0.33,-0.07,0,-0.01
06/08/2023 19:43:34,-0.50,3.24,-0.19,0.01,0.01,-0.01
06/08/2023 19:43:35,-0.56,3.22,0.68,-0.02,0.08,-0.02
06/08/2023 19:43:35,-0.35,3.11,-0.08,0.07,0.08,-0.01
06/08/2023 19:43:36,-0.39,2.85,-0.1,0.02,0,0
06/08/2023 19:43:36,-0.62,2.87,0.42,0.02,0.08,-0.01
06/08/2023 19:43:37,-0.53,2.92,1.07,0.1,0.01,0
06/08/2023 19:43:37,-0.19,2.75,-0.57,0.03,0.03,-0.01
06/08/2023 19:43:38,-0.06,2.95,1.01,0.11,-0.02,-0.02
06/08/2023 19:43:38,-0.26,2.46,-1.43,-0.03,-0.05,-0.01
06/08/2023 19:43:39,-0.51,2.55,-0.18,-0.04,0.07,-0.01
06/08/2023 19:43:39,-0.40,2.38,-0.75,0.05,-0.04,-0.01
06/08/2023 19:43:40,-0.58,2.08,0.05,-0.01,0.01,-0.01
06/08/2023 19:43:40,-0.70,1.93,-0.21,-0.06,0.06,-0.02
06/08/2023 19:43:41,-0.14,2.74,0.47,0.07,-0.02,-0.03
06/08/2023 19:43:41,-0.27,2.82,-1.47,-0.02,0.01,-0.02
06/08/2023 19:43:42,-0.45,2.6,-0.49,-0.09,0.03,-0.05
06/08/2023 19:43:42,-0.29,2.66,-0.16,-0.01,-0.01,-0.02
06/08/2023 19:43:43,-0.94,2.53,-1.12,0.1,0.05,-0.02
06/08/2023 19:43:43,-0.66,2.1,-0.02,-0.01,0.03,-0.02
06/08/2023 19:43:44,-0.28,2.07,0.48,0.07,0.01,-0.03
06/08/2023 19:43:44,-0.53,2.09,-0.03,0.01,-0.01,-0.01
06/08/2023 19:43:45,-0.29,1.87,-0.66,0.01,0.07,0
06/08/2023 19:43:45,-0.39,2.26,-0.85,-0.02,-0.04,-0.01
06/08/2023 19:43:46,-0.43,2.51,0.06,0,0,-0.03
06/08/2023 19:43:46, 0.06,2.64,-0.76,-0.01,-0.02,-0.05
06/08/2023 19:43:47,-0.56,2.83,-0.02,-0.02,0,-0.03
06/08/2023 19:43:47,-0.43,2.38,-0.45,-0.08,-0.02,-0.02
06/08/2023 19:43:48,-1.14,2.26,1.71,-0.06,-0.04,-0.02
06/08/2023 19:43:48,-0.28,2.09,-0.66,-0.04,-0.02,0.01
06/08/2023 19:43:49,-0.62,2.66,-0.52,0.01,0.01,0
06/08/2023 19:43:49,-0.69,3.26,0.21,-0.04,0.1,0
06/08/2023 19:43:50,-0.44,2.87,-0.6,0.08,0.04,-0.03
06/08/2023 19:43:50,-0.33,3.1,-1.23,0.08,0.01,-0.02
06/08/2023 19:43:51,-0.38,2.88,-0.18,0.02,0,-0.02
06/08/2023 19:43:51,-0.51,1.55,0.24,0.04,0,-0.03
06/08/2023 19:43:52,-0.62,1.92,-0.95,0.02,-0.06,0
06/08/2023 19:43:52,-0.23,1.08,-0.01,-0.03,-0.01,-0.01
06/08/2023 19:43:53,-0.43,-0.55,1,0,-0.01,0
06/08/2023 19:43:53,-0.47,1.55,-0.27,-0.08,0.08,-0.02
06/08/2023 19:43:54,-0.85,1.89,0.68,0.08,0.09,-0.02
06/08/2023 19:43:54,-0.44,1.91,0,-0.03,0.03,-0.02
06/08/2023 19:43:55,-0.38,2.53,0.18,-0.06,0.05,-0.03
06/08/2023 19:43:55,-0.35,2.42,0.35,0.07,-0.01,-0.03
06/08/2023 19:43:56,-0.51,1.97,-0.51,-0.06,0.02,-0.02
06/08/2023 19:43:56,-0.37,3.15,-0.04,0,-0.02,-0.02
06/08/2023 19:43:57,-0.53,3.46,-0.37,0.01,-0.02,-0.01
06/08/2023 19:43:57,-0.29,3.95,0.11,-0.02,0.03,-0.02
06/08/2023 19:43:58,-0.46,3.06,0.32,0.04,0.05,-0.01
06/08/2023 19:43:58,-0.72,2.65,-0.47,-0.07,-0.03,-0.02
06/08/2023 19:43:59,-0.35,2.93,0.19,0.03,-0.07,-0.02
06/08/2023 19:43:59,-1.09,1.89,0.88,0.01,0.06,-0.01
06/08/2023 19:44:00,-0.37,2,-0.26,0,-0.03,-0.01
06/08/2023 19:44:00,-0.71,1.81,1.14,0.11,0.12,-0.02
06/08/2023 19:44:01,-0.94,1.79,-1.17,-0.07,0.03,-0.02
06/08/2023 19:44:01,-0.69,2.47,0.31,-0.03,0.08,-0.01
06/08/2023 19:44:02,-0.56,2.15,-0.09,-0.03,0.05,-0.02
06/08/2023 19:44:02,-0.61,2.02,-0.26,0.01,0.01,-0.02
06/08/2023 19:44:03,-0.64,1.8,0.21,0.01,0.02,-0.02
06/08/2023 19:44:03,-0.37,1.22,-0.02,-0.04,0.02,-0.02
06/08/2023 19:44:04,-0.37,2.54,0.05,0.02,0.01,-0.02
06/08/2023 19:44:04,-0.42,2.07,0.17,-0.02,0.04,-0.02
06/08/2023 19:44:05,-0.60,1.73,0.12,-0.01,0.03,-0.01
06/08/2023 19:44:05,-0.66,3.38,-0.18,0.04,0,-0.01
06/08/2023 19:44:06,-0.57,3.44,-0.63,0,-0.02,0
06/08/2023 19:44:06,-0.46,4.21,-0.42,0,-0.03,-0.02
06/08/2023 19:44:07,-0.55,2.49,0.18,-0.05,0.05,-0.04
06/08/2023 19:44:07,-0.46,3.01,-0.06,-0.01,0.02,-0.03
06/08/2023 19:44:08,-0.49,3.84,-0.16,0,0.05,-0.02
06/08/2023 19:44:08,-0.53,3.89,-0.47,-0.01,0.02,-0.01
06/08/2023 19:44:09,-0.69,3.52,-0.49,-0.01,0.02,-0.01
06/08/2023 19:44:09,-0.58,3.27,-0.3,-0.01,0.07,-0.01
06/08/2023 19:44:10,-0.63,3.24,0.19,0,0.05,-0.03
06/08/2023 19:44:10,-0.51,2.7,0.16,0,-0.02,-0.02
06/08/2023 19:44:11,-0.45,2.13,0.35,-0.02,-0.01,-0.02
06/08/2023 19:44:11,-0.34,1.87,0.24,-0.02,0.05,-0.02
06/08/2023 19:44:12,-0.41,2.17,-0.15,-0.01,0.03,-0.02
06/08/2023 19:44:12,-0.18,2.5,0.07,-0.04,0.02,-0.02
06/08/2023 19:44:13,-0.43,3.03,-0.15,-0.02,0.04,-0.03
06/08/2023 19:44:13,-0.55,2.9,0.33,-0.04,0.06,-0.01
06/08/2023 19:44:14,-0.31,3.04,-0.26,-0.02,0.06,-0.02
06/08/2023 19:44:14,-0.28,3.23,-0.44,-0.01,0.02,-0.02
06/08/2023 19:44:15, 0.12,3.83,-0.71,0.01,0.1,-0.05
06/08/2023 19:44:15,-0.48,3.65,0.57,0.04,0.06,-0.04
06/08/2023 19:44:16,-0.37,3.25,-0.25,-0.02,0.01,-0.02
06/08/2023 19:44:16,-0.52,3.62,0.3,0.02,0.05,-0.03
06/08/2023 19:44:17,-0.30,2.68,0.71,0.15,0.02,-0.01
06/08/2023 19:44:17,-0.28,3.51,-0.83,0.03,0.05,-0.01
06/08/2023 19:44:18,-0.53,2.92,-0.86,-0.04,0.05,-0.02
06/08/2023 19:44:18,-0.78,2.71,0.79,0.02,-0.02,-0.01
06/08/2023 19:44:19,-0.34,1.47,-1.88,0.09,-0.08,-0.02
06/08/2023 19:44:19,-0.51,1.9,-0.12,0.03,-0.07,0
06/08/2023 19:44:20,-0.30,1.92,-0.25,-0.08,0.01,-0.02
06/08/2023 19:44:20,-0.81,2.8,0.32,0,0.05,-0.01
06/08/2023 19:44:21, 0.11,3.13,-0.4,0.01,0.02,-0.01
06/08/2023 19:44:21,-0.39,3,-0.22,-0.05,-0.03,-0.01
06/08/2023 19:44:22,-0.69,3.08,0.36,0.01,0.01,-0.02
06/08/2023 19:44:22,-0.28,3.3,-0.12,0.02,0.02,-0.02
06/08/2023 19:44:23,-0.68,2.83,-0.07,-0.01,0,-0.02
06/08/2023 19:44:23,-0.24,2.66,0.07,-0.04,-0.04,-0.01
06/08/2023 19:44:24,-0.59,2.21,0.3,-0.03,-0.1,-0.01
06/08/2023 19:44:24,-0.26,1.93,0.56,-0.01,0.01,-0.02
06/08/2023 19:44:25,-0.62,1.66,0.42,-0.03,0,-0.01
06/08/2023 19:44:25,-0.50,1.91,0.06,-0.04,0.05,-0.02
06/08/2023 19:44:26, 0.06,2.76,0.5,0.02,0.03,-0.02
06/08/2023 19:44:26, 0.13,2.61,-0.23,-0.04,-0.02,-0.03
06/08/2023 19:44:27,-0.54,2.57,0.25,-0.02,0.03,-0.02
06/08/2023 19:44:27,-0.48,1.67,0.08,0,-0.01,-0.02
06/08/2023 19:44:28,-0.41,1.96,0.2,-0.05,-0.01,-0.02
06/08/2023 19:44:28,-0.54,2.44,-0.02,0.04,0,-0.02
06/08/2023 19:44:29,-0.65,2.94,-0.94,0,0.07,-0.02
06/08/2023 19:44:29,-0.57,2.7,0.38,0.02,-0.03,-0.01
06/08/2023 19:44:30,-0.11,2.86,0.71,0.02,0.05,-0.01
06/08/2023 19:44:30,-0.25,3.27,-0.49,-0.01,0.07,-0.04
06/08/2023 19:44:31,-0.91,3.47,0.33,-0.03,0.06,-0.02
06/08/2023 19:44:31, 0.17,3.43,-0.68,0.06,-0.11,-0.04
06/08/2023 19:44:32,-0.66,3.46,-0.13,-0.01,0.03,-0.02
06/08/2023 19:44:32,-0.40,3.27,-0.12,-0.03,0.06,-0.02
06/08/2023 19:44:33,-0.72,2.83,0.12,-0.03,0,-0.01
06/08/2023 19:44:33,-0.64,2.88,0.7,0.04,0.02,-0.01
06/08/2023 19:44:34,-0.89,2.29,-1.61,-0.04,0.07,-0.01
06/08/2023 19:44:34,-0.37,2.57,-0.32,0,0.06,-0.03
06/08/2023 19:44:35,-0.43,2.09,-0.26,0.02,-0.04,-0.01
06/08/2023 19:44:35,-0.47,2.26,-0.5,-0.03,0,-0.01
06/08/2023 19:44:36,-0.72,2.97,-0.64,-0.01,0.02,-0.02
06/08/2023 19:44:36,-0.22,2.97,0.35,0.01,0.03,-0.01
06/08/2023 19:44:37,-0.09,2.22,-0.3,0,0.07,-0.03
06/08/2023 19:44:37,-0.51,2.2,-1.03,-0.04,-0.03,-0.01
06/08/2023 19:44:38,-0.65,2.72,1.71,-0.03,0.01,-0.02
06/08/2023 19:44:38,-0.36,2.72,-0.11,-0.05,-0.02,-0.02
06/08/2023 19:44:39,-0.44,3.14,-0.67,-0.01,0.02,-0.02
06/08/2023 19:44:39,-0.80,3.01,0.27,0,0.03,-0.02
06/08/2023 19:44:40,-0.19,2.93,-0.38,0,0.03,-0.02
06/08/2023 19:44:40,-0.71,3.27,0.5,-0.03,-0.03,-0.02
06/08/2023 19:44:41,-0.41,2.99,-0.08,-0.03,0.05,-0.02
06/08/2023 19:44:41,-0.95,3.01,1,0.01,0.07,-0.01
06/08/2023 19:44:42,-0.91,2.08,0.17,0.01,0.05,0
06/08/2023 19:44:42,-0.79,2.16,0.1,-0.03,0.01,-0.01
06/08/2023 19:44:43,-0.51,1.81,-0.02,-0.03,-0.04,-0.01
06/08/2023 19:44:43,-0.63,2.42,-0.11,-0.04,-0.05,-0.01
06/08/2023 19:44:44,-1.56,2.18,-0.08,-0.08,0.01,-0.01
06/08/2023 19:44:44,-0.63,1.99,0.14,-0.06,0.07,-0.02
06/08/2023 19:44:45,-0.75,2.01,-0.53,-0.01,0.05,-0.03
06/08/2023 19:44:45,-0.72,3.03,-0.01,0,0.03,-0.01
06/08/2023 19:44:46,-0.50,2.55,-0.73,-0.03,-0.03,-0.02
06/08/2023 19:44:46,-0.21,2.2,0.38,-0.05,0.1,-0.03
06/08/2023 19:44:47,-0.54,1.79,0.35,0.03,-0.05,-0.01
06/08/2023 19:44:47,-0.54,1.91,0.28,-0.01,0.04,-0.03
06/08/2023 19:44:48,-0.70,1.95,0.49,-0.03,-0.02,-0.02
06/08/2023 19:44:48,-0.78,-1.74,0.46,-0.04,-0.02,0
06/08/2023 19:44:49,-0.54,-0.97,0.88,-0.01,0,-0.01
06/08/2023 19:44:49,-0.59,0.11,0.49,-0.02,0.05,-0.02
06/08/2023 19:44:50,-0.56,1.35,0.23,-0.01,0.06,-0.02
06/08/2023 19:44:50,-0.64,2.47,-0.02,-0.01,0.06,-0.02
06/08/2023 19:44:51,-0.18,2.24,-0.08,-0.01,0.02,-0.02
06/08/2023 19:44:51,-0.32,2.96,-0.16,0,0,-0.01
06/08/2023 19:44:52,-0.51,3.18,0.03,-0.02,0.02,-0.02
06/08/2023 19:44:52,-0.41,3.47,-0.13,0,0.04,-0.03
06/08/2023 19:44:53,-0.41,3.39,-0.23,-0.02,0.03,-0.03
06/08/2023 19:44:53,-0.31,3.31,-0.13,0,0.03,-0.01
06/08/2023 19:44:54,-0.36,3.09,-0.27,-0.01,0.01,-0.01
06/08/2023 19:44:54,-0.22,2.85,0.04,0.02,0.01,-0.02
06/08/2023 19:44:55,-0.33,2.65,0.18,-0.02,0.03,-0.03
06/08/2023 19:44:55,-0.55,2.46,-0.01,-0.04,0.03,-0.04
06/08/2023 19:44:56, 0.27,1.73,-2.2,0.03,0.1,-0.03
06/08/2023 19:44:56,-0.57,2.53,-0.57,0,-0.03,-0.01
06/08/2023 19:44:57,-0.53,4.09,-0.2,-0.03,0.07,-0.03
06/08/2023 19:44:57,-0.17,3.5,0.36,0.02,0.1,-0.01
06/08/2023 19:44:58,-0.28,4.27,-0.29,-0.01,0.01,-0.01
06/08/2023 19:44:58,-0.43,2.55,-0.11,-0.01,-0.02,-0.01
06/08/2023 19:44:59,-0.37,3.51,-0.48,0.04,-0.01,-0.04
06/08/2023 19:44:59,-0.51,3.97,-0.58,-0.02,0.03,-0.03
06/08/2023 19:45:00, 0.00,2.83,-0.13,-0.02,0,-0.04
06/08/2023 19:45:00,-0.25,2.59,-0.78,-0.02,-0.02,-0.05
06/08/2023 19:45:01,-0.18,2.73,0.28,-0.01,0.02,-0.04
06/08/2023 19:45:01, 0.41,2.67,-0.15,0.01,-0.02,-0.05
06/08/2023 19:45:02,-0.09,3.34,-0.36,0,0.03,-0.05
06/08/2023 19:45:02, 0.06,3.22,-0.18,0.03,0.02,-0.03
06/08/2023 19:45:03,-0.32,3.48,-0.43,0.01,-0.02,-0.02
06/08/2023 19:45:03,-0.37,3.46,0.13,-0.05,0.04,-0.02
06/08/2023 19:45:04,-0.41,2.76,0.17,-0.02,-0.01,-0.03
06/08/2023 19:45:04,-0.14,2.69,0.19,-0.01,0,-0.04
06/08/2023 19:45:05,-0.29,3.19,-0.04,0.04,-0.08,-0.03
06/08/2023 19:45:05,-0.22,3.21,-0.54,-0.07,0.04,-0.03
06/08/2023 19:45:06,-0.24,3.16,-0.61,-0.05,-0.07,-0.03
06/08/2023 19:45:06,-1.09,3.28,1.24,0.04,0.03,-0.05
06/08/2023 19:45:07,-0.16,2.7,0.33,-0.01,0.05,-0.05
06/08/2023 19:45:07, 0.06,2.57,0.42,0.07,0,-0.04
06/08/2023 19:45:08,-0.29,2.42,1.1,0,0.08,-0.04
06/08/2023 19:45:08, 0.04,3.2,0.62,0.07,0.02,-0.03
06/08/2023 19:45:09,-0.19,2.17,0.18,-0.05,-0.05,-0.03
06/08/2023 19:45:09,-0.30,2.31,0.43,-0.03,0.04,-0.04
06/08/2023 19:45:10, 0.05,2.22,0.52,0.02,0,-0.05
06/08/2023 19:45:10, 0.07,1.6,0.17,0.02,-0.04,-0.03
06/08/2023 19:45:11,-0.02,1.98,0.82,0.11,0.05,-0.04
06/08/2023 19:45:11, 0.02,1.76,0.11,0.02,0,-0.05
06/08/2023 19:45:12,-0.17,2.29,0.25,-0.05,0.05,-0.04
06/08/2023 19:45:12,-0.63,2.09,0.32,0.05,-0.02,0
06/08/2023 19:45:13,-0.69,1.91,-0.3,0.04,-0.05,-0.02
06/08/2023 19:45:13,-0.11,1.58,-0.65,0.06,0.04,-0.01
06/08/2023 19:45:14,-0.26,2.14,-0.43,-0.02,0.04,-0.02
06/08/2023 19:45:14,-0.99,1.51,0.88,0.04,0.1,-0.02
06/08/2023 19:45:15, 0.03,2.27,-0.5,0,0.01,-0.03
06/08/2023 19:45:15, 0.18,1.09,-0.61,0,0.04,-0.02
06/08/2023 19:45:16,-0.05,1.83,-0.05,0,0.02,-0.03
06/08/2023 19:45:16, 0.00,1.7,0.22,0,0.02,-0.02
06/08/2023 19:45:17,-0.60,1.78,0.16,0.03,0.05,-0.04
06/08/2023 19:45:17,-0.36,1.87,0.09,0.01,0.04,-0.03
06/08/2023 19:45:18,-0.23,1.82,0.15,-0.02,0.04,-0.03
06/08/2023 19:45:18,-0.36,1.32,0.11,0.01,0.01,-0.02
06/08/2023 19:45:19,-0.42,1.36,0.44,-0.01,0.02,-0.02
06/08/2023 19:45:19,-0.40,1.64,0.24,-0.01,0.01,-0.02
06/08/2023 19:45:20,-0.44,1.86,0.17,0,0.01,-0.02
06/08/2023 19:45:20,-0.42,2.16,0.18,0,0.02,-0.02
06/08/2023 19:45:21,-0.46,2.68,0.1,-0.01,0.02,-0.02
06/08/2023 19:45:21,-0.47,2.68,0,-0.01,0.02,-0.02
06/08/2023 19:45:22,-0.44,2.69,0.01,-0.01,0.02,-0.02
06/08/2023 19:45:22,-0.42,2.65,0,-0.01,0.02,-0.02
06/08/2023 19:45:23,-0.43,3.04,-0.05,0,0.01,-0.02
06/08/2023 19:45:23,-0.40,4.37,-0.47,0,0.02,-0.02
06/08/2023 19:45:24,-0.35,4.72,-0.56,-0.01,0.04,-0.02
06/08/2023 19:45:24,-0.38,4.66,-0.54,-0.01,-0.01,-0.04
06/08/2023 19:45:25,-0.04,2.22,-0.29,-0.06,0.05,-0.05
06/08/2023 19:45:25, 0.29,4.39,-0.41,0.03,0.01,-0.02
06/08/2023 19:45:26, 0.00,3.24,-0.45,0,-0.03,-0.02
06/08/2023 19:45:26,-0.73,3.24,0.11,0,0.02,-0.02
06/08/2023 19:45:27, 0.13,3.24,0.67,0.04,0.11,-0.05
06/08/2023 19:45:27,-0.08,3.29,0.45,-0.08,0.08,0
06/08/2023 19:45:28, 0.16,2.54,0.69,0.03,0.02,-0.04
06/08/2023 19:45:28,-0.28,2.56,0.94,-0.06,0.01,-0.03
06/08/2023 19:45:29,-0.01,3.44,-0.12,-0.02,0.05,-0.03
06/08/2023 19:45:29,-0.46,2.38,-0.08,0.03,0.01,-0.02
06/08/2023 19:45:30,-0.22,2,0.23,0.01,0.01,-0.02
06/08/2023 19:45:30,-0.64,2.08,0.03,-0.04,0.04,-0.01
06/08/2023 19:45:31,-0.62,2.02,0.25,0,0.05,0
06/08/2023 19:45:31,-0.75,1.67,0.26,-0.03,0.08,0.07
06/08/2023 19:45:32,-1.33,2.15,-0.23,-0.02,0.08,0.17
06/08/2023 19:45:32,-1.52,2.17,0.01,-0.05,0.09,0.24
06/08/2023 19:45:33,-1.42,1.89,0.02,-0.06,0.06,0.33
06/08/2023 19:45:33,-1.20,2.36,0.03,-0.02,0.12,0.32
06/08/2023 19:45:34,-0.78,2.37,-0.11,-0.01,0.06,0.34
06/08/2023 19:45:34,-1.55,2.18,0.35,-0.05,0.05,0.3
06/08/2023 19:45:35,-1.02,2.09,0.41,-0.02,0.1,0.26
06/08/2023 19:45:35,-0.44,2.31,0.32,0.02,0.08,0.2
06/08/2023 19:45:36, 0.06,1.58,0.15,0.01,0.02,0.1
06/08/2023 19:45:36,-0.09,1.43,0.21,-0.03,0.03,0.04
06/08/2023 19:45:37,-0.07,2.07,0.37,0,0.02,0.01
06/08/2023 19:45:37,-0.05,1.97,0.07,-0.01,0.04,0
06/08/2023 19:45:38, 0.06,1.92,0.2,0,0.03,-0.01
06/08/2023 19:45:38,-0.08,1.88,0.18,-0.01,0.03,-0.01
06/08/2023 19:45:39,-0.03,2.3,0.14,0,0.02,-0.02
06/08/2023 19:45:39,-0.04,2.34,0.11,0,0.02,-0.01
06/08/2023 19:45:40,-0.07,2.37,0.11,0,0.02,-0.02
06/08/2023 19:45:40,-0.05,2.62,0.04,0,0.02,-0.02
06/08/2023 19:45:41,-0.00,2.53,0.06,-0.01,0.02,-0.02
06/08/2023 19:45:41,-0.02,2.55,0.04,-0.01,0.03,-0.02
06/08/2023 19:45:42,-0.02,2.53,0.01,-0.01,0.02,-0.02
06/08/2023 19:45:42,-0.01,2.53,0.05,-0.01,0.02,-0.02
06/08/2023 19:45:43, 0.02,2.53,0.02,-0.01,0.02,-0.02
06/08/2023 19:45:43,-0.02,2.52,0.03,-0.01,0.02,-0.02
06/08/2023 19:45:44,-0.01,2.52,0,-0.01,0.02,-0.02
06/08/2023 19:45:44, 0.02,2.51,0.01,-0.01,0.02,-0.02
06/08/2023 19:45:45, 0.01,2.54,0.02,-0.01,0.02,-0.02
06/08/2023 19:45:45,-0.01,2.53,0.01,-0.01,0.02,-0.02
06/08/2023 19:45:46,-0.01,2.52,0.01,-0.01,0.02,-0.02
06/08/2023 19:45:46,-0.02,2.54,0.02,0,0.02,-0.02
06/08/2023 19:45:47,-0.02,2.5,0.03,-0.01,0.02,-0.02
06/08/2023 19:45:47, 0.03,2.5,0,-0.01,0.02,-0.02
06/08/2023 19:45:48,-0.02,2.53,0.03,-0.01,0.02,-0.02
06/08/2023 19:45:48,-0.02,2.55,0.04,-0.01,0.02,-0.02
06/08/2023 19:45:49,-0.06,2.56,0.07,-0.01,0.02,-0.02
06/08/2023 19:45:49,-0.02,2.55,0.06,0,0.02,-0.02
06/08/2023 19:45:50,-0.06,2.56,0.06,-0.01,0.02,-0.02
06/08/2023 19:45:50,-0.04,2.56,0.06,-0.01,0.02,-0.02
06/08/2023 19:45:51,-0.03,2.56,0.06,0,0.02,-0.02
06/08/2023 19:45:51,-0.05,2.56,0.07,-0.01,0.02,-0.02
06/08/2023 19:45:52,-0.04,2.55,0.06,-0.01,0.02,-0.02
06/08/2023 19:45:52,-0.02,2.54,0.06,0,0.02,-0.02
06/08/2023 19:45:53,-0.03,2.54,0.04,-0.01,0.02,-0.02
06/08/2023 19:45:53,-0.02,2.54,0.02,0,0.02,-0.02
06/08/2023 19:45:54, 0.00,2.52,0.03,-0.01,0.02,-0.02
06/08/2023 19:45:54,-0.00,2.53,0.03,-0.01,0.02,-0.02
06/08/2023 19:45:55,-0.00,2.53,0.01,-0.01,0.02,-0.02
06/08/2023 19:45:55,-0.01,2.51,0.01,-0.01,0.02,-0.02
06/08/2023 19:45:56, 0.01,2.51,0.01,-0.01,0.02,-0.02
06/08/2023 19:45:56, 0.03,2.57,0.02,-0.01,0.02,-0.02
06/08/2023 19:45:57,-0.03,2.57,0,-0.01,0.02,-0.02
06/08/2023 19:45:57,-0.02,2.87,-0.17,0,0.03,-0.02
06/08/2023 19:45:58,-0.01,3.37,-0.18,0.01,0.02,-0.01
06/08/2023 19:45:58,-0.05,3.49,-0.19,0,0.04,0
06/08/2023 19:45:59,-0.14,2.48,0.02,-0.02,0.02,0
06/08/2023 19:45:59,-0.17,3.64,-0.35,0.02,0.03,0
06/08/2023 19:46:00,-0.12,3.6,-0.22,0,0.02,0.01
06/08/2023 19:46:00,-0.10,2.42,0.29,-0.01,0.03,0
06/08/2023 19:46:01,-0.00,3.34,-0.1,0,0.02,0.01
06/08/2023 19:46:01,-0.20,2.77,-0.13,-0.02,0.02,0.01
06/08/2023 19:46:02,-0.59,2.69,0.05,-0.02,0.04,0.06
06/08/2023 19:46:02,-0.49,2.16,0.24,0.04,0.08,0.09
06/08/2023 19:46:03,-0.59,3.54,-0.29,-0.01,0.08,0.14
06/08/2023 19:46:03,-0.68,3.53,-0.3,0,0.13,0.26
06/08/2023 19:46:04,-1.76,2.86,0.37,0.02,0.14,0.3
06/08/2023 19:46:04,-1.26,2.85,0.18,0,0.15,0.35
06/08/2023 19:46:05,-1.75,3.5,-0.3,-0.04,0.13,0.39
06/08/2023 19:46:05,-1.19,4,-0.36,-0.03,0.13,0.29
06/08/2023 19:46:06,-1.00,3.71,0.34,0.01,0.11,0.18
06/08/2023 19:46:06,-1.02,2.56,0.19,-0.03,0.05,0.1
06/08/2023 19:46:07,-0.53,4.36,-0.57,0.03,0.08,0.05
06/08/2023 19:46:07,-0.35,4.63,-0.58,0.02,0.07,0.03
06/08/2023 19:46:08,-0.42,3.93,0.21,-0.03,-0.03,-0.01
06/08/2023 19:46:08,-1.18,3.48,0.56,0,0.01,-0.02
06/08/2023 19:46:09,-1.13,2.41,0.12,-0.02,0.06,-0.03
06/08/2023 19:46:09,-0.36,2.53,-0.24,-0.01,0,-0.01
06/08/2023 19:46:10,-0.94,2.64,0.3,-0.02,-0.05,-0.01
06/08/2023 19:46:10,-0.07,2.72,-0.84,0,0.05,-0.03
06/08/2023 19:46:11,-0.14,3.17,-0.07,0.06,-0.06,-0.03
06/08/2023 19:46:11,-0.54,2.62,-0.2,0.1,0.02,-0.02
06/08/2023 19:46:12,-0.95,2.25,-0.67,-0.02,-0.06,-0.01
06/08/2023 19:46:12,-0.68,2.26,0.91,0.03,0.04,-0.02
06/08/2023 19:46:13,-0.49,1.8,0.51,0.03,0.01,-0.01
06/08/2023 19:46:13,-0.74,1.78,0.01,0,0.06,-0.02
06/08/2023 19:46:14,-0.25,2.05,0.71,0.01,0,-0.01
06/08/2023 19:46:14,-0.56,2.21,0.47,0.08,0,0.01
06/08/2023 19:46:15,-0.11,0.73,-0.3,0.1,0.03,0.02
06/08/2023 19:46:15, 0.05,0.84,-0.67,0,0.07,0.02
06/08/2023 19:46:16,-0.60,1.21,0.08,-0.01,0.04,0.04
06/08/2023 19:46:16,-0.77,2.15,0.67,0.01,0.08,0.09
06/08/2023 19:46:17,-1.24,2.1,0.47,-0.03,0.07,0.15
06/08/2023 19:46:17,-1.56,2.04,0.35,-0.06,0.07,0.18
06/08/2023 19:46:18,-0.84,1.98,0.21,-0.02,0.06,0.19
06/08/2023 19:46:18,-0.51,2.06,0.36,0,0.04,0.19
06/08/2023 19:46:19,-0.60,2.06,0.43,0.01,0.04,0.16
06/08/2023 19:46:19,-0.73,3.6,0.09,0,0.16,0.12
06/08/2023 19:46:20,-0.72,2.51,0.26,0.03,0.02,0.11
06/08/2023 19:46:20,-0.28,2.11,-0.31,-0.02,0.03,0.08
06/08/2023 19:46:21,-0.42,2.46,-0.21,0,0.01,0.05
06/08/2023 19:46:21,-0.50,3.26,-0.09,-0.03,0.02,0.01
06/08/2023 19:46:22,-0.48,3.73,0.15,0.03,0.01,0
06/08/2023 19:46:22,-0.36,3.55,0.48,0.03,0,-0.04
06/08/2023 19:46:23,-0.20,3.49,-0.53,-0.02,-0.06,-0.04
06/08/2023 19:46:23, 0.30,3.92,-0.19,-0.06,0,-0.05
06/08/2023 19:46:24,-0.19,3.28,0.95,-0.02,-0.05,-0.04
06/08/2023 19:46:24,-0.79,2.68,1.19,-0.04,-0.08,-0.02
06/08/2023 19:46:25,-0.14,2.61,0.43,-0.01,0.07,-0.02
06/08/2023 19:46:25,-0.87,2.35,0.62,0.02,0.05,-0.02
06/08/2023 19:46:26,-0.44,2.32,-0.44,0.01,0.09,-0.02
06/08/2023 19:46:26,-0.61,2.73,-0.16,0.01,0.06,-0.01
06/08/2023 19:46:27,-0.34,2.42,0.02,-0.02,0.01,0
06/08/2023 19:46:27,-0.67,2.37,0.21,-0.08,-0.06,0.01
06/08/2023 19:46:28,-0.18,2.36,0.31,0.02,-0.02,0
06/08/2023 19:46:28, 0.14,1.99,-0.79,0.08,0.04,0.01
06/08/2023 19:46:29, 0.27,2.12,-0.42,-0.04,0.05,-0.03
06/08/2023 19:46:29,-0.68,1.85,1.51,0.07,0.05,0.01
06/08/2023 19:46:30,-0.63,1.71,-0.42,-0.13,-0.02,-0.02
06/08/2023 19:46:30, 0.91,1.25,-1.6,0.08,0.09,0.01
06/08/2023 19:46:31,-0.34,2.23,0.1,0.01,0.05,-0.01
06/08/2023 19:46:31,-0.50,2.77,0.26,0.02,-0.03,0
06/08/2023 19:46:32,-0.24,1.84,-0.23,0.02,0.04,-0.01
06/08/2023 19:46:32,-0.20,1.88,0.98,0.09,-0.08,0.02
06/08/2023 19:46:33,-0.33,3.22,-0.2,-0.03,0.01,0
06/08/2023 19:46:33,-0.32,2.94,0.24,-0.02,-0.02,-0.01
06/08/2023 19:46:34, 0.09,2.55,-0.08,-0.05,0,-0.02
06/08/2023 19:46:34, 0.34,1.66,0.52,-0.03,0.03,-0.03
06/08/2023 19:46:35, 0.38,1.32,-0.36,0.05,0.06,-0.03
06/08/2023 19:46:35,-0.27,1.35,0.55,0,-0.01,-0.02
06/08/2023 19:46:36,-0.20,1.58,0.29,0,-0.01,-0.02
06/08/2023 19:46:36,-0.31,2.44,0.52,-0.01,0.04,-0.04
06/08/2023 19:46:37,-0.08,2.3,-0.22,0.01,-0.01,-0.02
06/08/2023 19:46:37,-0.36,2.45,0.43,0,-0.01,-0.01
06/08/2023 19:46:38,-0.26,2.74,-0.23,0.04,0.03,-0.02
06/08/2023 19:46:38,-0.27,3.28,-0.15,-0.03,0.02,-0.02
06/08/2023 19:46:39,-0.24,3.28,-0.01,0.03,0.04,-0.02
06/08/2023 19:46:39,-0.49,2.44,0.93,-0.02,0.05,-0.01
06/08/2023 19:46:40,-0.29,2.12,0.31,-0.03,0.02,-0.02
06/08/2023 19:46:40,-0.45,3.1,-0.45,0.03,0.02,-0.01
06/08/2023 19:46:41,-0.03,2.66,-0.1,-0.01,0.01,-0.04
06/08/2023 19:46:41, 0.64,2.37,0.07,0.04,-0.05,-0.2
06/08/2023 19:46:42, 1.92,2.71,-0.39,0.04,-0.16,-0.33
06/08/2023 19:46:42, 2.51,2.78,0.7,0.12,-0.14,-0.52
06/08/2023 19:46:43, 1.62,3.23,0.88,-0.06,-0.09,-0.51
06/08/2023 19:46:43, 1.12,2.66,-0.96,-0.03,-0.06,-0.45
06/08/2023 19:46:44, 0.68,2.84,-0.54,-0.03,-0.02,-0.31
06/08/2023 19:46:44, 0.51,3.02,-0.15,0.03,-0.05,-0.18
06/08/2023 19:46:45,-0.07,3.12,0.51,-0.01,-0.01,-0.12
06/08/2023 19:46:45,-0.03,2.48,0.09,-0.03,0.06,-0.09
06/08/2023 19:46:46, 0.18,2.51,-0.29,-0.01,0.03,-0.04
06/08/2023 19:46:46,-0.04,3.45,-0.82,0,0,0.01
06/08/2023 19:46:47,-0.31,3.68,-0.27,-0.03,0.07,0
06/08/2023 19:46:47,-0.66,3.73,-0.27,0.02,0,0
06/08/2023 19:46:48,-0.44,3.08,0.07,-0.01,0.01,0
06/08/2023 19:46:48,-0.40,2.94,-0.02,-0.05,0.01,-0.01
06/08/2023 19:46:49,-0.49,2.93,-0.08,-0.02,0.01,-0.01
06/08/2023 19:46:49,-0.16,2.95,0.04,0,-0.03,-0.01
06/08/2023 19:46:50, 0.11,3.03,0.57,-0.02,0,-0.01
06/08/2023 19:46:50,-0.04,2.83,-0.08,0,0.01,-0.02
06/08/2023 19:46:51,-0.59,2.36,0.02,-0.03,-0.03,-0.01
06/08/2023 19:46:51, 0.27,2.09,-0.06,-0.03,-0.01,0
06/08/2023 19:46:52, 0.01,1.23,0.44,0.03,-0.03,-0.01
06/08/2023 19:46:52,-0.19,1.06,0.34,-0.02,0.04,-0.01
06/08/2023 19:46:53,-0.42,0.93,0.54,-0.02,-0.02,0
06/08/2023 19:46:53,-0.22,0.98,0.32,-0.01,0.01,0
06/08/2023 19:46:54,-0.09,1.85,0.26,-0.01,0.03,0
06/08/2023 19:46:54, 0.16,2.06,0.13,-0.01,0.02,-0.01
06/08/2023 19:46:55, 0.09,2.08,0.33,0,0.02,-0.02
06/08/2023 19:46:55, 0.14,2.14,0.13,-0.01,0.03,-0.02
06/08/2023 19:46:56, 0.15,2.14,0.1,-0.01,0.02,-0.02
06/08/2023 19:46:56, 0.09,2.17,0.14,-0.01,0.03,-0.02
06/08/2023 19:46:57, 0.09,2.18,0.14,0,0.02,-0.02
06/08/2023 19:46:57, 0.17,2.18,0.1,-0.01,0.02,-0.02
06/08/2023 19:46:58, 0.15,2.31,0.03,0,0.02,-0.02
06/08/2023 19:46:58, 0.11,2.63,-0.04,-0.01,0.01,-0.02
06/08/2023 19:46:59, 0.01,2.7,0.06,-0.01,0.03,-0.02
06/08/2023 19:46:59, 0.01,2.68,-0.04,-0.01,0.03,-0.02
06/08/2023 19:47:00, 0.10,2.69,0,-0.01,0.02,-0.02
06/08/2023 19:47:00, 0.13,2.64,-0.01,-0.01,0.02,-0.02
06/08/2023 19:47:01, 0.22,2.56,-0.02,-0.01,0,-0.01
06/08/2023 19:47:01, 0.14,2.76,0.08,-0.01,0.02,-0.01
06/08/2023 19:47:02, 0.12,2.72,0.03,-0.01,0.02,-0.02
06/08/2023 19:47:02, 0.15,2.72,0.01,-0.01,0.02,-0.02
06/08/2023 19:47:03, 0.05,2.72,-0.03,-0.01,0.02,-0.02
06/08/2023 19:47:03, 0.07,2.71,0.04,-0.01,0.02,-0.02
06/08/2023 19:47:04, 0.14,2.74,0.02,-0.01,0.02,-0.02
06/08/2023 19:47:04, 0.07,2.73,-0.01,0,0.02,-0.02
06/08/2023 19:47:05, 0.13,2.72,0.03,-0.01,0.02,-0.02
06/08/2023 19:47:05, 0.19,2.71,0.03,-0.01,0.02,-0.02
06/08/2023 19:47:06, 0.12,2.65,0.05,-0.01,0.03,-0.02
06/08/2023 19:47:06, 0.10,2.38,0.16,0,0.03,-0.02
06/08/2023 19:47:07, 0.06,1.92,0.27,-0.01,0.03,-0.02
06/08/2023 19:47:07, 0.10,1.73,0.24,-0.01,0.02,-0.01
06/08/2023 19:47:08, 0.14,2.74,0.14,-0.01,0.02,-0.01
06/08/2023 19:47:08, 0.20,2.48,-0.05,-0.01,0.03,0
06/08/2023 19:47:09, 0.06,2.29,0.16,-0.01,0.03,0.02
06/08/2023 19:47:09, 0.26,2.41,0.11,-0.01,0.02,0.04
06/08/2023 19:47:10, 0.08,2.7,0.03,0,0.02,0.03
06/08/2023 19:47:10, 0.13,2.97,0.05,-0.01,0.04,0.02
06/08/2023 19:47:11,-0.01,2.82,0.06,0,0.04,0.02
06/08/2023 19:47:11,-0.10,3.02,-0.07,0,0.03,0.02
06/08/2023 19:47:12,-0.06,3.36,-0.09,-0.02,0.04,0
06/08/2023 19:47:12, 0.03,2.64,0.04,-0.01,0.03,-0.03
06/08/2023 19:47:13,-0.09,2.09,0.06,-0.02,0.02,-0.07
06/08/2023 19:47:13,-0.28,1.82,0.1,-0.01,0.01,-0.11
06/08/2023 19:47:14,-0.75,2.98,-0.15,0.01,0.01,-0.12
06/08/2023 19:47:14,-0.51,3.62,-0.32,0,0.01,-0.09
06/08/2023 19:47:15,-0.40,2.71,-0.08,-0.01,0,-0.07
06/08/2023 19:47:15,-0.62,2.44,0.03,0,0.01,-0.06
06/08/2023 19:47:16,-0.45,2.05,0.26,0,0.02,-0.07
06/08/2023 19:47:16,-0.49,3.03,-0.21,0.01,0,-0.03
06/08/2023 19:47:17,-0.30,4.58,-0.59,-0.01,0.02,-0.01
06/08/2023 19:47:17,-0.37,2.89,0.1,-0.01,0.02,-0.02
06/08/2023 19:47:18,-0.42,2.67,0.04,-0.01,0.02,-0.01
06/08/2023 19:47:18,-0.30,2.69,-0.03,-0.01,0.02,-0.02
06/08/2023 19:47:19,-0.30,2.63,-0.04,-0.01,0.02,-0.02
06/08/2023 19:47:19,-0.34,3.91,-0.32,0,0.02,-0.02
06/08/2023 19:47:20,-0.22,4.53,-0.42,-0.01,0.03,-0.08
06/08/2023 19:47:20,-0.38,2.43,-0.12,-0.02,0.01,-0.08
06/08/2023 19:47:21,-0.70,2.48,0.11,-0.01,0.03,-0.02
06/08/2023 19:47:21,-0.72,2.1,0.13,-0.02,0.04,-0.03
06/08/2023 19:47:22,-0.56,1.89,0.17,-0.02,0.04,-0.02
06/08/2023 19:47:22,-0.69,1.76,0.17,-0.01,0.03,-0.02
06/08/2023 19:47:23,-0.65,1.82,0.21,0,0.02,-0.02
06/08/2023 19:47:23,-0.67,2.53,0,-0.01,0.02,-0.02
06/08/2023 19:47:24,-0.67,2.35,0.14,-0.01,0.01,-0.02
06/08/2023 19:47:24,-0.65,2.59,-0.01,-0.01,0.02,-0.02
06/08/2023 19:47:25,-0.68,2.55,0.16,-0.02,0.03,-0.02
06/08/2023 19:47:25,-0.63,3.13,-0.36,0,0.03,-0.02
06/08/2023 19:47:26,-0.59,5.46,-0.74,0.01,0.01,-0.03
06/08/2023 19:47:26,-0.49,3.94,-0.27,-0.02,0.01,-0.05
06/08/2023 19:47:27,-0.68,2.58,-0.07,0.01,0.03,-0.05
06/08/2023 19:47:27,-0.77,2.19,0.06,-0.02,0.04,-0.02
06/08/2023 19:47:28,-0.76,2.16,0.13,-0.01,0.03,0.01
06/08/2023 19:47:28,-0.87,2.23,0.18,-0.01,0.04,0.01
06/08/2023 19:47:29,-0.81,2.21,0.1,-0.01,0.03,0.02
06/08/2023 19:47:29,-0.90,2.16,0.17,-0.01,0.03,0.04
06/08/2023 19:47:30,-0.97,2.26,0.04,-0.02,0.05,0.08
06/08/2023 19:47:30,-1.07,2.59,-0.15,-0.01,0.06,0.11
06/08/2023 19:47:31,-0.94,3.13,-0.07,-0.01,0.08,0.17
06/08/2023 19:47:31,-1.16,3.32,-0.38,-0.03,0.07,0.27
06/08/2023 19:47:32,-1.22,3.26,-0.24,-0.05,0.08,0.38
06/08/2023 19:47:32,-0.86,2.55,-0.18,-0.1,0.13,0.43
06/08/2023 19:47:33,-0.71,1.58,0.27,-0.06,0.04,0.4
06/08/2023 19:47:33, 0.19,1.68,0.08,-0.02,0.1,0.24
06/08/2023 19:47:34, 0.21,1.28,0.6,-0.08,-0.09,0.22
06/08/2023 19:47:34,-0.44,1.65,-0.05,0,0.04,-0.03
06/08/2023 19:47:35,-0.23,2.27,0.12,-0.01,0.04,-0.03
06/08/2023 19:47:35, 0.14,1.85,0.13,-0.01,0.02,-0.03
06/08/2023 19:47:36, 0.24,1.39,0.41,-0.03,-0.05,-0.03
06/08/2023 19:47:36,-0.04,1.55,0.45,-0.01,0.09,-0.05
06/08/2023 19:47:37, 0.12,2.23,-0.22,0.04,0.05,0.04
06/08/2023 19:47:37, 0.01,1.77,0.01,-0.02,0.07,0.11
06/08/2023 19:47:38, 0.15,2.66,0.08,0.03,0.06,0.16
06/08/2023 19:47:38, 0.07,2.06,0.07,0,0.08,0.16
06/08/2023 19:47:39, 0.16,2.72,0.08,0.02,0.07,0.18
06/08/2023 19:47:39, 0.23,3.76,-0.19,0.02,0.05,0.11
06/08/2023 19:47:40, 0.11,3.4,-0.14,0.02,0.05,0.07
06/08/2023 19:47:40, 0.02,3.08,-0.02,-0.03,0.05,0
06/08/2023 19:47:41,-0.00,3,-0.18,-0.01,0.03,-0.01
06/08/2023 19:47:41,-0.06,3.34,-0.1,0,0.03,-0.01
06/08/2023 19:47:42,-0.28,4.35,-0.41,-0.03,0.06,0.05
06/08/2023 19:47:42,-0.61,4.05,-0.46,-0.08,0.1,0.24
06/08/2023 19:47:43,-0.60,2.07,-0.25,-0.1,0.1,0.37
06/08/2023 19:47:43,-0.77,1.86,-0.12,-0.04,0.16,0.34
06/08/2023 19:47:44,-0.76,2.08,0.18,-0.04,0.13,0.28
06/08/2023 19:47:44,-0.78,2.17,0.16,-0.03,0.11,0.27
06/08/2023 19:47:45,-0.77,2.15,0.12,-0.02,0.09,0.22
06/08/2023 19:47:45,-0.77,2.27,0.07,-0.01,0.07,0.17
06/08/2023 19:47:46,-0.64,2.52,0.12,-0.01,0.05,0.11
06/08/2023 19:47:46,-0.67,3.45,-0.43,0,0.06,0.1
06/08/2023 19:47:47,-0.74,3.79,-0.32,-0.01,0.05,0.07
06/08/2023 19:47:47,-0.79,4,-0.4,-0.01,0.04,0.05
06/08/2023 19:47:48,-1.08,3.45,-0.33,-0.01,0.04,0.05
06/08/2023 19:47:48,-0.70,3.96,-0.23,-0.05,0.08,0.05
06/08/2023 19:47:49,-0.96,4,-0.6,0,0.01,0.06
06/08/2023 19:47:49,-0.60,2.45,-0.37,0.01,0.04,0.04
06/08/2023 19:47:50,-0.65,3.8,-0.3,0,0,-0.01
06/08/2023 19:47:50,-0.10,3.98,-0.22,0.02,-0.02,-0.04
06/08/2023 19:47:51, 0.56,3.31,-0.74,0.02,0.03,-0.08
06/08/2023 19:47:51, 0.41,2.94,-0.25,-0.01,-0.03,-0.09
06/08/2023 19:47:52, 0.29,2.96,-0.23,0.05,0.02,-0.09
06/08/2023 19:47:52,-0.26,2.57,-0.36,-0.02,0.02,-0.06
06/08/2023 19:47:53,-0.33,1.9,0.19,-0.03,0.02,-0.03
06/08/2023 19:47:53,-0.52,1.27,0.47,0.04,0.02,-0.01
06/08/2023 19:47:54,-0.97,1.42,0.33,-0.02,0.06,0.02
06/08/2023 19:47:54,-0.80,0.96,0.58,-0.02,0.01,0.01
06/08/2023 19:47:55,-0.67,0.9,0.65,0.03,0.03,0
06/08/2023 19:47:55,-0.50,0.91,0.82,-0.01,0.03,-0.02
06/08/2023 19:47:56,-0.40,0.8,0.67,-0.01,0.01,-0.05
06/08/2023 19:47:56,-0.34,1.49,0.31,-0.02,0.01,-0.07
06/08/2023 19:47:57,-0.55,1.75,0.1,-0.02,0.01,-0.06
06/08/2023 19:47:57,-0.44,1.82,0.21,0,0,-0.06
06/08/2023 19:47:58,-0.42,2.07,0.12,0,0.01,-0.05
06/08/2023 19:47:58,-0.42,1.97,0.12,-0.01,0.02,-0.04
06/08/2023 19:47:59,-0.45,1.99,0.14,-0.01,0.02,-0.03
06/08/2023 19:47:59,-0.44,2.04,0.12,0,0.02,-0.02
06/08/2023 19:48:00,-0.44,2.35,0.1,-0.01,0.02,-0.02
06/08/2023 19:48:00,-0.43,2.39,0.05,-0.01,0.02,-0.02
06/08/2023 19:48:01,-0.45,2.42,0.06,-0.01,0.02,-0.02
06/08/2023 19:48:01,-0.43,2.4,0.07,-0.01,0.02,-0.02
06/08/2023 19:48:02,-0.39,2.38,0.06,-0.01,0.02,-0.02
06/08/2023 19:48:02,-0.45,2.37,0.05,-0.01,0.02,-0.02
06/08/2023 19:48:03,-0.46,2.34,0.07,-0.01,0.02,-0.02
06/08/2023 19:48:03,-0.42,2.38,0.06,-0.01,0.03,-0.02
06/08/2023 19:48:04,-0.44,2.37,0.05,-0.01,0.02,-0.02
06/08/2023 19:48:04,-0.43,2.4,0.06,-0.01,0.02,-0.02
06/08/2023 19:48:05,-0.40,2.39,0.05,-0.01,0.02,-0.02
06/08/2023 19:48:05,-0.46,2.42,0.07,-0.01,0.02,-0.02
06/08/2023 19:48:06,-0.43,2.43,0.05,-0.01,0.02,-0.02
06/08/2023 19:48:06,-0.49,2.44,0.1,-0.01,0.02,-0.02
06/08/2023 19:48:07,-0.44,2.44,0.08,0,0.02,-0.02
06/08/2023 19:48:07,-0.48,2.42,0.11,-0.01,0.02,-0.02
06/08/2023 19:48:08,-0.50,2.4,0.08,-0.01,0.03,-0.02
06/08/2023 19:48:08,-0.43,2.41,0.08,0,0.02,-0.02
06/08/2023 19:48:09,-0.49,2.41,0.09,-0.01,0.02,-0.02
06/08/2023 19:48:09,-0.43,2.38,0.04,-0.01,0.02,-0.02
06/08/2023 19:48:10,-0.44,2.36,0.06,-0.01,0.02,-0.02
06/08/2023 19:48:10,-0.41,2.38,0.05,-0.01,0.03,-0.02
06/08/2023 19:48:11,-0.43,2.39,0.04,-0.01,0.02,-0.02
06/08/2023 19:48:11,-0.44,2.38,0.06,-0.01,0.02,-0.02
06/08/2023 19:48:12,-0.38,2.39,0.04,-0.01,0.02,-0.02
06/08/2023 19:48:12,-0.43,2.39,0.06,-0.01,0.02,-0.02
06/08/2023 19:48:13,-0.45,2.41,0.05,-0.01,0.02,-0.02
06/08/2023 19:48:13,-0.40,2.39,0.06,-0.01,0.02,-0.02
06/08/2023 19:48:14,-0.46,2.42,0.06,-0.01,0.02,-0.02
06/08/2023 19:48:14,-0.43,2.51,0.01,-0.01,0.02,-0.02
06/08/2023 19:48:15,-0.46,2.67,0.03,0.01,0.02,-0.02
06/08/2023 19:48:15,-0.40,3.89,-0.26,0,0.01,-0.04
06/08/2023 19:48:16,-0.34,4.13,-0.46,0,0.01,-0.08
06/08/2023 19:48:16,-0.35,2.34,0.08,0.02,-0.01,-0.11
06/08/2023 19:48:17,-0.35,2.49,0,0,-0.01,-0.1
06/08/2023 19:48:17,-0.46,2.45,-0.03,0,-0.01,-0.08
06/08/2023 19:48:18,-0.47,1.47,0.23,-0.02,0.01,-0.08
06/08/2023 19:48:18,-0.47,2.11,0.15,0,0,-0.05
06/08/2023 19:48:19,-0.29,2.42,-0.12,0.01,-0.04,-0.04
06/08/2023 19:48:19,-0.40,1.82,0.33,-0.02,0.03,-0.11
06/08/2023 19:48:20,-0.07,2.02,0.2,-0.01,-0.02,-0.1
06/08/2023 19:48:20,-0.35,1.64,0.26,0,0,-0.08
06/08/2023 19:48:21,-0.27,1.7,0.24,-0.01,0.02,-0.03
06/08/2023 19:48:21,-0.19,2.25,0.05,-0.01,0.03,-0.02
06/08/2023 19:48:22,-0.24,2.29,0.08,-0.01,0.02,-0.02
06/08/2023 19:48:22,-0.21,2.3,0.1,-0.01,0.02,-0.02
06/08/2023 19:48:23,-0.20,2.3,0.12,-0.01,0.02,-0.02
06/08/2023 19:48:23,-0.25,2.29,0.1,-0.01,0.02,-0.02
06/08/2023 19:48:24,-0.24,2.29,0.13,-0.01,0.02,-0.02
06/08/2023 19:48:24,-0.22,2.29,0.08,-0.01,0.02,-0.02
06/08/2023 19:48:25,-0.21,2.29,0.09,-0.01,0.02,-0.02
06/08/2023 19:48:25,-0.25,2.33,0.13,-0.01,0.02,-0.02
06/08/2023 19:48:26,-0.25,2.32,0.12,-0.01,0.02,-0.02
06/08/2023 19:48:26,-0.24,2.32,0.11,-0.01,0.02,-0.02
06/08/2023 19:48:27,-0.23,2.32,0.11,-0.01,0.02,-0.02
06/08/2023 19:48:27,-0.26,2.32,0.13,-0.01,0.02,-0.02
06/08/2023 19:48:28,-0.22,2.33,0.12,-0.01,0.02,-0.02
06/08/2023 19:48:28,-0.26,2.33,0.14,-0.01,0.02,-0.02
06/08/2023 19:48:29,-0.24,2.32,0.13,-0.01,0.02,-0.02
06/08/2023 19:48:29,-0.23,2.44,0.08,-0.01,0.02,-0.02
06/08/2023 19:48:30,-0.20,2.54,0.05,-0.01,0.01,-0.03
06/08/2023 19:48:30,-0.08,3.31,-0.17,0.01,0,-0.07
06/08/2023 19:48:31, 0.19,3.52,-0.22,-0.01,-0.04,-0.17
06/08/2023 19:48:31, 0.41,2.32,-0.01,-0.01,-0.02,-0.23
06/08/2023 19:48:32, 0.56,2.93,-0.2,0.01,-0.02,-0.34
06/08/2023 19:48:32, 0.96,3.07,-0.61,0.04,-0.11,-0.37
06/08/2023 19:48:33, 1.02,3.54,-0.05,0,-0.01,-0.44
06/08/2023 19:48:33, 1.09,3.57,0.07,0.04,0,-0.42
06/08/2023 19:48:34, 1.08,3.64,-0.43,0.01,-0.08,-0.28
06/08/2023 19:48:34, 0.07,3.66,-0.39,-0.03,-0.02,-0.14
06/08/2023 19:48:35,-0.40,2.12,-0.12,0,0.01,-0.05
06/08/2023 19:48:35,-0.35,3.91,-0.13,0.01,0.06,-0.02
06/08/2023 19:48:36,-0.48,4.31,-0.39,0,0.02,-0.01
06/08/2023 19:48:36,-0.51,4.1,0,-0.03,0.04,-0.03
06/08/2023 19:48:37,-1.03,3.56,-0.28,-0.18,-0.12,0
06/08/2023 19:48:37, 0.18,2.97,0.97,-0.03,-0.02,-0.02
06/08/2023 19:48:38,-0.13,2.18,0.76,0.04,0.01,-0.04
06/08/2023 19:48:38, 0.20,0.99,0.39,0.12,0.13,-0.06
06/08/2023 19:48:39,-3.15,1.27,1.07,-0.03,-0.08,-0.06
06/08/2023 19:48:39,-1.18,2.73,0.71,-0.04,-0.08,-0.09
06/08/2023 19:48:40,-0.39,1.7,0.6,0,0.03,-0.06
06/08/2023 19:48:40, 0.25,2.15,-0.04,0,0.01,-0.05
06/08/2023 19:48:41, 0.15,2.69,-0.02,-0.06,0.01,-0.03
06/08/2023 19:48:41,-0.31,1.92,-0.12,0.03,0.11,-0.03
06/08/2023 19:48:42,-0.32,3.38,-0.08,0.01,0.03,-0.03
06/08/2023 19:48:42,-0.47,2.46,1.07,-0.04,-0.02,-0.02
06/08/2023 19:48:43,-0.05,2.6,1.01,-0.04,-0.07,-0.03
06/08/2023 19:48:43,-0.52,2.36,0.22,0.01,0,-0.04
06/08/2023 19:48:44,-0.55,2.65,0.55,0.01,0.01,-0.02
06/08/2023 19:48:44,-0.62,2.88,-0.13,-0.05,0.07,-0.04
06/08/2023 19:48:45,-0.21,2.43,-0.15,0.01,0.14,-0.03
06/08/2023 19:48:45,-0.63,1.14,0.17,-0.02,-0.01,-0.02
06/08/2023 19:48:46,-0.70,0.85,0.77,0,0.05,-0.02
06/08/2023 19:48:46,-0.33,2.39,0.05,0.02,0,-0.01
06/08/2023 19:48:47,-0.39,2.49,-0.04,-0.01,0.04,-0.02
06/08/2023 19:48:47,-0.37,2.41,0.31,-0.01,0.02,-0.02
06/08/2023 19:48:48,-0.29,1.01,0.27,-0.04,0.02,-0.01
06/08/2023 19:48:48,-0.47,1.42,0.19,0.01,0.01,-0.01
06/08/2023 19:48:49,-0.54,2.03,0.19,0,0.01,-0.01
06/08/2023 19:48:49,-0.48,2.1,0.15,0,0.02,-0.02
06/08/2023 19:48:50,-0.48,2.16,0.01,0.01,0.03,-0.02
06/08/2023 19:48:50,-0.48,2.52,0.21,-0.01,0.02,-0.01
06/08/2023 19:48:51,-0.66,2.97,-0.18,0,0.03,0.02
06/08/2023 19:48:51,-0.64,3.91,-0.37,0,0.04,0.1
06/08/2023 19:48:52,-0.73,2.4,0.07,-0.05,0.06,0.15
06/08/2023 19:48:52,-0.96,4.21,-0.2,0,0.08,0.18
06/08/2023 19:48:53,-0.72,2.74,-0.49,-0.04,0.03,0.15
06/08/2023 19:48:53, 0.15,4.35,-0.59,-0.03,0.02,-0.07
06/08/2023 19:48:54, 0.39,4.09,-0.6,-0.03,0,-0.13
06/08/2023 19:48:54, 0.90,3.88,-0.14,0,-0.04,-0.23
06/08/2023 19:48:55, 0.88,4.04,-0.13,0,-0.01,-0.24
06/08/2023 19:48:55, 0.63,3.7,0,0.02,0.09,-0.15
06/08/2023 19:48:56,-0.58,4.08,-0.28,0.02,0.05,-0.06
06/08/2023 19:48:56, 0.17,3.98,-0.74,0,0.06,-0.06
06/08/2023 19:48:57,-0.37,2.53,-0.2,0.04,0.05,-0.06
06/08/2023 19:48:57,-0.01,4.78,-0.51,0.02,0,-0.04
06/08/2023 19:48:58,-0.64,4.29,-0.67,-0.04,0.07,-0.02
06/08/2023 19:48:58,-0.81,3.83,0.91,0.05,0,0
06/08/2023 19:48:59,-0.69,2.96,-0.46,0,0.17,0
06/08/2023 19:48:59,-0.53,2.24,0.07,0,-0.01,0.01
06/08/2023 19:49:00,-0.57,2.05,0.34,-0.04,0.13,0
06/08/2023 19:49:00,-0.71,2.34,-0.06,0.05,-0.02,0.03
06/08/2023 19:49:01,-0.55,2.21,0.66,-0.03,0.1,-0.01
06/08/2023 19:49:01, 0.03,2.67,0.12,-0.03,-0.1,-0.01
06/08/2023 19:49:02,-1.12,2.83,0.59,0.01,0.01,0.02
06/08/2023 19:49:02,-0.51,2.57,-0.34,-0.03,0.01,0
06/08/2023 19:49:03,-0.18,2.79,-0.61,-0.1,0.04,-0.04
06/08/2023 19:49:03,-0.57,4.09,0.8,0.01,0.08,-0.03
06/08/2023 19:49:04,-0.39,2.68,0.69,-0.04,0.05,-0.02
06/08/2023 19:49:04, 0.28,2.58,-0.48,0.02,-0.03,-0.02
06/08/2023 19:49:05, 0.25,3.64,-0.84,0.02,0.04,-0.03
06/08/2023 19:49:05,-0.99,3.95,0.52,0,0.02,-0.01
06/08/2023 19:49:06,-1.06,2.11,0.36,-0.05,0.05,-0.01
06/08/2023 19:49:06,-1.07,1.96,0.3,-0.01,0.04,-0.02
06/08/2023 19:49:07,-0.99,2.2,1.22,0.03,-0.02,0
06/08/2023 19:49:07,-0.10,1.68,-1.1,-0.09,0.01,-0.01
06/08/2023 19:49:08,-0.27,2.82,0.61,-0.01,0.07,-0.02
06/08/2023 19:49:08,-0.33,1.79,-0.71,-0.01,-0.02,-0.01
06/08/2023 19:49:09,-0.22,2.4,0.19,0.03,-0.05,-0.02
06/08/2023 19:49:09,-1.21,2.26,0.79,-0.04,-0.02,-0.02
06/08/2023 19:49:10, 0.14,1.63,-0.28,-0.08,0.04,-0.03
06/08/2023 19:49:10, 0.59,2.17,0.16,-0.01,0.06,-0.05
06/08/2023 19:49:11,-0.45,2.18,0.68,0.05,0.02,-0.01
06/08/2023 19:49:11,-0.65,1.85,0.29,0.02,0.01,-0.01
06/08/2023 19:49:12,-0.35,2.47,-1.4,0.07,0,0.03
06/08/2023 19:49:12,-0.44,3.35,-0.16,-0.01,0.05,0.03
06/08/2023 19:49:13,-1.42,2.03,0.17,-0.07,0.03,-0.05
06/08/2023 19:49:13,-0.50,2.48,1.07,-0.07,0.13,-0.06
06/08/2023 19:49:14,-0.44,3.37,2.11,0.13,0.06,-0.04
06/08/2023 19:49:14, 1.18,2.92,-0.77,-0.18,0.1,-0.06
06/08/2023 19:49:15, 0.39,3.48,-0.66,-0.05,0,-0.05
06/08/2023 19:49:15, 0.06,3.11,-0.4,-0.14,-0.03,-0.04
06/08/2023 19:49:16,-0.55,2.95,1.31,-0.02,0.06,-0.05
06/08/2023 19:49:16,-1.24,1.64,-0.82,0.08,0.01,-0.01
06/08/2023 19:49:17, 0.37,1.73,-0.39,0.1,-0.14,-0.02
06/08/2023 19:49:17, 0.02,1.23,-0.44,-0.02,0.05,-0.01
06/08/2023 19:49:18,-0.32,1.88,-0.21,0,-0.01,-0.01
06/08/2023 19:49:18,-0.19,1.45,-0.74,0.04,0.04,-0.01
06/08/2023 19:49:19,-0.74,0.91,0.53,-0.02,0.08,-0.01
06/08/2023 19:49:19,-0.36,0.28,0.99,0.04,0,-0.02
06/08/2023 19:49:20,-0.22,0.58,0.95,-0.03,0.08,-0.02
06/08/2023 19:49:20,-0.47,0.57,1.01,-0.01,-0.01,-0.01
06/08/2023 19:49:21,-0.39,1.48,0.74,0,0,-0.01
06/08/2023 19:49:21,-0.29,1.41,0.46,0,0,-0.01
06/08/2023 19:49:22,-0.34,1.76,0.09,0,0.02,-0.02
06/08/2023 19:49:22,-0.32,1.92,0.13,0,0.02,-0.02
06/08/2023 19:49:23,-0.36,2.05,0.1,-0.01,0.02,-0.01
06/08/2023 19:49:23,-0.34,2.03,0.17,-0.01,0.01,-0.02
06/08/2023 19:49:24,-0.40,2.76,0.06,0,0.02,-0.02
06/08/2023 19:49:24,-0.39,2.61,0.03,-0.01,0.02,-0.02
06/08/2023 19:49:25,-0.39,2.58,0.03,-0.01,0.02,-0.02
06/08/2023 19:49:25,-0.40,2.6,0.02,-0.01,0.02,-0.02
06/08/2023 19:49:26,-0.36,2.6,0.04,-0.01,0.02,-0.02
06/08/2023 19:49:26,-0.39,2.6,0.04,-0.01,0.02,-0.02
06/08/2023 19:49:27,-0.37,2.6,0.06,-0.01,0.02,-0.02
06/08/2023 19:49:27,-0.40,2.61,0.06,-0.01,0.02,-0.02
06/08/2023 19:49:28,-0.38,2.59,0.05,-0.01,0.02,-0.02
06/08/2023 19:49:28,-0.39,2.55,0.03,0,0.02,-0.02
06/08/2023 19:49:29,-0.34,2.56,-0.01,-0.01,0.02,-0.02
06/08/2023 19:49:29,-0.36,2.55,0.02,-0.01,0.02,-0.02
06/08/2023 19:49:30,-0.35,2.53,0.01,-0.01,0.02,-0.02
06/08/2023 19:49:30,-0.33,2.54,-0.01,-0.01,0.02,-0.02
06/08/2023 19:49:31,-0.34,2.54,0.02,-0.01,0.02,-0.02
06/08/2023 19:49:31,-0.34,2.57,0.02,-0.01,0.02,-0.02
06/08/2023 19:49:32,-0.35,2.56,0.03,-0.01,0.02,-0.02
06/08/2023 19:49:32,-0.35,2.55,0,-0.01,0.02,-0.02
06/08/2023 19:49:33,-0.36,2.57,0,-0.01,0.02,-0.02
06/08/2023 19:49:33,-0.33,2.54,0.02,-0.01,0.02,-0.02
06/08/2023 19:49:34,-0.36,2.57,0.02,-0.01,0.02,-0.02
06/08/2023 19:49:34,-0.37,2.59,0.04,-0.01,0.02,-0.02
06/08/2023 19:49:35,-0.39,2.58,0.04,-0.01,0.02,-0.02
06/08/2023 19:49:35,-0.36,2.58,0.04,-0.01,0.02,-0.02
06/08/2023 19:49:36,-0.39,2.59,0.05,-0.01,0.02,-0.02
06/08/2023 19:49:36,-0.37,2.58,0.03,-0.01,0.02,-0.02
06/08/2023 19:49:37,-0.36,2.57,0.05,0,0.02,-0.02
06/08/2023 19:49:37,-0.37,2.57,0.02,-0.01,0.02,-0.02
06/08/2023 19:49:38,-0.35,2.55,0.01,0,0.03,-0.02
06/08/2023 19:49:38,-0.39,2.83,-0.1,0,0.02,-0.02
06/08/2023 19:49:39,-0.30,4.15,-0.36,0.01,0.02,-0.02
06/08/2023 19:49:39,-0.51,4.41,-0.54,0.01,0.02,-0.02
06/08/2023 19:49:40,-0.78,2.35,0.06,-0.01,0.04,-0.03
06/08/2023 19:49:40,-0.21,3.53,0.16,0.01,0.04,-0.02
06/08/2023 19:49:41,-0.86,3.62,-0.04,-0.04,-0.01,-0.02
06/08/2023 19:49:41,-0.45,3.45,0.1,-0.04,0.03,-0.03
06/08/2023 19:49:42,-0.40,2.81,0.52,0.05,-0.01,-0.03
06/08/2023 19:49:42,-0.57,2.73,0.56,-0.01,0.02,-0.03
06/08/2023 19:49:43,-0.33,1.6,0.43,-0.03,0.01,-0.02
06/08/2023 19:49:43,-0.36,2.45,0.1,0.01,0.05,-0.02
06/08/2023 19:49:44,-0.30,3.69,-0.22,-0.02,0.05,0
06/08/2023 19:49:44,-0.46,2.51,0.13,-0.01,0.05,0.01
06/08/2023 19:49:45,-0.41,1.9,0.18,0.01,0,0
06/08/2023 19:49:45,-0.26,2.4,-0.22,0.01,0.03,-0.01
06/08/2023 19:49:46, 0.07,3.28,-0.43,0.03,0.01,-0.02
06/08/2023 19:49:46,-0.36,3.23,0.46,-0.05,0.09,-0.03
06/08/2023 19:49:47, 0.04,3.31,0.04,0.03,0.01,-0.01
06/08/2023 19:49:47,-1.05,3.02,1.88,0.06,0,-0.01
06/08/2023 19:49:48,-1.15,3.08,-0.23,-0.01,0.17,-0.06
06/08/2023 19:49:48, 0.08,3.43,-1.61,0.04,0.18,-0.04
06/08/2023 19:49:49, 0.13,3.62,-0.91,-0.02,0.07,-0.02
06/08/2023 19:49:49, 0.01,4.09,-0.65,0,-0.02,0
06/08/2023 19:49:50,-0.39,2.43,0.47,0.03,-0.01,0
06/08/2023 19:49:50, 0.01,4.53,-0.82,0.03,-0.02,0
06/08/2023 19:49:51,-0.18,3.92,-0.18,-0.09,0.05,-0.01
06/08/2023 19:49:51,-0.28,4.24,0.02,0,-0.03,-0.01
06/08/2023 19:49:52, 0.37,4.05,0.28,0.02,0.01,-0.03
06/08/2023 19:49:52, 0.47,3.79,-0.75,-0.03,0.01,-0.04
06/08/2023 19:49:53, 0.17,2.62,-0.21,0.03,0,-0.03
06/08/2023 19:49:53, 0.29,2.36,-0.53,-0.03,0.12,-0.05
06/08/2023 19:49:54,-0.54,2.3,1.01,0.03,0.01,-0.01
06/08/2023 19:49:54,-0.10,1.53,-0.95,0.03,0.02,-0.02
06/08/2023 19:49:55,-0.67,2.42,0.12,-0.03,0.02,0
06/08/2023 19:49:55,-0.55,3.42,-0.87,-0.06,0.03,-0.02
06/08/2023 19:49:56,-0.91,3.51,0.57,0,-0.01,0
06/08/2023 19:49:56,-0.30,3.23,-0.34,-0.02,0.07,-0.03
06/08/2023 19:49:57,-0.55,2.83,0.29,0.02,0.06,-0.03
06/08/2023 19:49:57,-0.69,2.56,0,0,-0.03,-0.02
06/08/2023 19:49:58,-0.24,2.97,0.12,0.03,-0.03,-0.01
06/08/2023 19:49:58,-0.41,2.46,0.01,0.01,0.02,-0.02
06/08/2023 19:49:59,-0.30,2.56,-0.61,-0.04,0.04,-0.01
06/08/2023 19:49:59,-0.63,3.94,-0.29,-0.05,0.04,-0.03
06/08/2023 19:50:00,-0.82,2.81,-1.05,-0.07,-0.04,0
06/08/2023 19:50:00,-0.45,2.23,-1.45,0.1,0.03,-0.01
06/08/2023 19:50:01,-0.19,1.97,-0.88,0.02,0.06,-0.05
06/08/2023 19:50:01, 0.15,1.73,-2.11,-0.1,0.05,0
06/08/2023 19:50:02,-0.26,2.17,0.91,0.01,0.01,0
06/08/2023 19:50:02,-0.42,2.08,1.02,-0.02,-0.03,-0.01
06/08/2023 19:50:03,-0.23,2,0.03,-0.03,0.12,-0.04
06/08/2023 19:50:03,-0.15,2.17,0.4,0.06,-0.09,-0.02
06/08/2023 19:50:04,-0.01,1.62,-0.15,0.01,0.02,-0.02
06/08/2023 19:50:04,-0.04,1.58,-0.53,-0.03,-0.03,0
06/08/2023 19:50:05, 0.06,2.87,-0.29,0.01,0.06,-0.03
06/08/2023 19:50:05, 0.15,2.93,0.1,0.02,0.07,-0.02
06/08/2023 19:50:06,-0.13,2.73,0.11,0.04,0.07,-0.01
06/08/2023 19:50:06,-0.01,2.18,-1.1,-0.08,0.03,0
06/08/2023 19:50:07,-0.86,2.88,0.25,-0.04,0.1,-0.01
06/08/2023 19:50:07,-0.84,2.72,-0.31,-0.04,0.06,0
06/08/2023 19:50:08,-0.41,2.69,1.32,0.01,0.09,-0.01
06/08/2023 19:50:08,-0.36,2.12,-1.04,0,-0.01,-0.03
06/08/2023 19:50:09,-0.02,2.18,-0.21,-0.04,-0.05,-0.02
06/08/2023 19:50:09, 0.02,2.29,0.72,0.01,-0.03,-0.02
06/08/2023 19:50:10, 0.29,1.69,-0.01,0.02,0.03,-0.03
06/08/2023 19:50:10,-0.21,2.22,-0.2,0.03,0,-0.03
06/08/2023 19:50:11,-0.15,2.34,-1.29,0.03,-0.01,-0.02
06/08/2023 19:50:11,-0.34,2.86,-0.18,-0.01,-0.03,-0.01
06/08/2023 19:50:12,-0.22,2.93,-0.75,-0.07,-0.01,-0.02
06/08/2023 19:50:12,-0.01,2.51,0,-0.07,-0.02,-0.02
06/08/2023 19:50:13,-0.35,2.84,0.81,0.03,0,-0.02
06/08/2023 19:50:13,-0.22,3,-0.14,0.01,0.04,-0.01
06/08/2023 19:50:14,-0.77,2.53,-0.75,-0.04,0.01,0.01
06/08/2023 19:50:14,-0.86,2.51,-0.31,-0.07,0.11,-0.02
06/08/2023 19:50:15,-0.79,2.37,-0.71,0.01,-0.01,0
06/08/2023 19:50:15,-0.24,2.56,-0.24,-0.02,0.02,-0.03
06/08/2023 19:50:16,-0.53,2.8,0.04,-0.07,0.04,-0.01
06/08/2023 19:50:16,-1.75,3.1,0.84,0.06,0.01,0.01
06/08/2023 19:50:17, 0.02,2.88,0.77,0.08,-0.03,-0.03
06/08/2023 19:50:17,-0.41,2.4,-0.86,0.04,0.05,-0.02
06/08/2023 19:50:18,-0.37,2.66,-0.62,-0.07,0.04,-0.01
06/08/2023 19:50:18,-0.79,2.75,-0.15,-0.05,0.04,-0.01
06/08/2023 19:50:19,-0.51,2.92,0.46,-0.03,0.01,-0.01
06/08/2023 19:50:19,-0.32,2.65,0.26,-0.02,0.08,-0.01
06/08/2023 19:50:20,-0.50,2.7,-0.48,-0.03,0.07,-0.03
06/08/2023 19:50:20,-0.25,3.1,0.35,0,0.02,-0.01
06/08/2023 19:50:21,-0.23,2.71,-0.29,-0.03,0.02,-0.03
06/08/2023 19:50:21,-0.13,3.14,0.72,0.03,0,-0.01
06/08/2023 19:50:22,-0.24,2.77,-0.32,0.01,-0.02,-0.01
06/08/2023 19:50:22,-0.25,2.47,-0.23,-0.03,0.02,-0.03
06/08/2023 19:50:23,-0.04,2.88,-0.13,0.01,-0.03,-0.03
06/08/2023 19:50:23, 0.08,2.89,-0.13,0.03,0.01,-0.02
06/08/2023 19:50:24, 0.10,2.98,0.5,0.06,0.05,-0.02
06/08/2023 19:50:24,-0.13,2.84,0.16,-0.01,0,-0.02
06/08/2023 19:50:25,-0.32,2.89,0.66,0.05,0.06,-0.03
06/08/2023 19:50:25, 0.57,2.68,0.58,0.1,0.06,-0.05
06/08/2023 19:50:26, 0.51,2.7,0.01,0.01,0,-0.04
06/08/2023 19:50:26, 0.33,2.67,0.5,0.03,0.03,-0.05
06/08/2023 19:50:27, 0.01,2.35,0.56,-0.02,0.08,-0.05
06/08/2023 19:50:27,-0.26,2.23,0.08,-0.09,0.05,-0.05
06/08/2023 19:50:28, 1.03,2.79,-0.68,-0.07,0.06,-0.08
06/08/2023 19:50:28,-0.41,3.38,2.85,0.04,0.01,-0.02
06/08/2023 19:50:29,-0.28,2.77,0.42,0.03,0.06,-0.03
06/08/2023 19:50:29,-0.00,2.19,1.02,0.04,-0.01,-0.02
06/08/2023 19:50:30,-0.04,2.09,0.15,0.04,0.05,-0.04
06/08/2023 19:50:30,-0.07,2.67,1.02,-0.03,0.03,-0.04
06/08/2023 19:50:31,-0.38,2.66,0.53,0.02,0.08,-0.04
06/08/2023 19:50:31,-0.42,2.3,-0.34,-0.05,-0.01,-0.03
06/08/2023 19:50:32,-0.42,2.55,0.34,-0.01,0.04,-0.02
06/08/2023 19:50:32,-0.30,2.87,-0.31,0,0.02,-0.02
06/08/2023 19:50:33,-0.26,3.16,1,0.1,0.02,-0.02
06/08/2023 19:50:33, 0.17,3.64,1.43,0.02,0.08,-0.06
06/08/2023 19:50:34, 0.09,2.79,0.46,0,0.03,-0.05
06/08/2023 19:50:34, 0.43,2.48,-1.38,-0.08,-0.03,-0.03
06/08/2023 19:50:35,-0.55,2.86,0.96,-0.02,-0.04,-0.03
06/08/2023 19:50:35, 0.09,2.96,0.21,-0.16,0.05,-0.05
06/08/2023 19:50:36,-0.96,2.29,0.01,-0.04,0.01,-0.01
06/08/2023 19:50:36, 0.31,2.85,-0.5,0.06,0.11,0
06/08/2023 19:50:37,-0.87,2.46,0,0.05,0.02,0
06/08/2023 19:50:37, 0.09,2.35,0.67,-0.07,0.14,-0.06
06/08/2023 19:50:38, 0.59,2.21,-0.91,-0.02,-0.06,-0.03
06/08/2023 19:50:38,-0.07,2.64,0,-0.05,-0.05,-0.04
06/08/2023 19:50:39,-0.14,2.6,0.13,-0.03,0.05,-0.02
06/08/2023 19:50:39,-0.27,1.58,0.96,-0.07,0.02,-0.01
06/08/2023 19:50:40,-1.02,2.09,0.68,-0.02,0.07,-0.01
06/08/2023 19:50:40,-0.24,2.34,1,0,0.01,-0.02
06/08/2023 19:50:41,-0.30,2.05,0.58,-0.04,0.02,-0.02
06/08/2023 19:50:41,-0.17,1.92,1.09,0.04,0.01,-0.01
06/08/2023 19:50:42,-0.13,0.73,-2.1,-0.01,-0.01,-0.01
06/08/2023 19:50:42, 0.06,1.51,-0.01,-0.02,-0.03,-0.01
06/08/2023 19:50:43,-0.27,1.78,-0.15,-0.08,0.05,-0.03
06/08/2023 19:50:43,-0.33,2.93,0.73,-0.02,0.01,-0.02
06/08/2023 19:50:44,-0.67,2.89,0.61,-0.02,0.02,-0.03
06/08/2023 19:50:44,-0.53,2.73,-0.74,-0.03,0.02,-0.03
06/08/2023 19:50:45, 0.37,1.73,2.11,0.02,0.05,-0.06
06/08/2023 19:50:45,-0.95,2.45,-0.34,-0.01,-0.02,-0.02
06/08/2023 19:50:46, 0.59,3.22,-0.43,-0.03,0.19,-0.03
06/08/2023 19:50:46,-0.30,3.13,0.13,0.04,0.02,0
06/08/2023 19:50:47,-0.45,3.01,-0.15,-0.08,0.03,-0.01
06/08/2023 19:50:47,-0.10,3.06,-0.27,0.02,0.01,-0.01
06/08/2023 19:50:48,-0.30,3.17,0.35,0,-0.04,-0.02
06/08/2023 19:50:48,-0.12,2.89,0.31,-0.04,0.06,-0.04
06/08/2023 19:50:49,-0.08,3.47,-0.49,-0.09,0,-0.04
06/08/2023 19:50:49, 0.38,1.88,0.71,-0.06,-0.04,-0.04
06/08/2023 19:50:50, 0.08,0.69,2.5,0.03,0.05,-0.03
06/08/2023 19:50:50,-0.63,0.26,1.47,-0.02,0.04,-0.03
06/08/2023 19:50:51,-0.38,0.74,1.08,-0.04,0.05,-0.02
06/08/2023 19:50:51,-0.25,0.77,0.68,-0.03,0.04,-0.02
06/08/2023 19:50:52,-0.10,1.07,0.96,0,0.04,-0.01
06/08/2023 19:50:52,-0.18,1.29,0.47,-0.01,0.02,-0.02
06/08/2023 19:50:53,-0.14,1.75,0.18,0,0.02,-0.02
06/08/2023 19:50:53,-0.25,1.72,0.27,0.01,0.02,-0.02
06/08/2023 19:50:54,-0.27,1.6,0.3,0,0.02,-0.02
06/08/2023 19:50:54,-0.22,1.56,0.26,0,0.01,-0.02
06/08/2023 19:50:55,-0.27,1.71,0.24,-0.01,0.02,-0.02
06/08/2023 19:50:55,-0.19,1.86,0.23,-0.01,0.02,-0.02
06/08/2023 19:50:56,-0.28,2.76,0.07,0.01,0.02,-0.02
06/08/2023 19:50:56,-0.23,2.57,0.01,-0.01,0.03,-0.02
06/08/2023 19:50:57,-0.24,2.57,0.03,-0.01,0.02,-0.02
06/08/2023 19:50:57,-0.23,2.57,0.03,-0.01,0.02,-0.02
06/08/2023 19:50:58,-0.19,2.57,0.03,-0.01,0.02,-0.02
06/08/2023 19:50:58,-0.24,2.58,0.05,-0.01,0.02,-0.02
06/08/2023 19:50:59,-0.22,2.58,0.04,-0.01,0.02,-0.02
06/08/2023 19:50:59,-0.22,2.57,0.06,-0.01,0.02,-0.02
06/08/2023 19:51:00,-0.24,2.6,0.04,-0.01,0.02,-0.02
06/08/2023 19:51:00,-0.21,2.58,0.03,-0.01,0.02,-0.02
06/08/2023 19:51:01,-0.24,2.6,0.06,-0.01,0.02,-0.02
06/08/2023 19:51:01,-0.24,2.6,0.03,-0.01,0.02,-0.02
06/08/2023 19:51:02,-0.23,2.58,0.03,-0.01,0.02,-0.02
06/08/2023 19:51:02,-0.24,2.6,0.07,-0.01,0.02,-0.02
06/08/2023 19:51:03,-0.23,2.6,0.09,-0.01,0.02,-0.02
06/08/2023 19:51:03,-0.25,2.59,0.07,-0.01,0.02,-0.02
06/08/2023 19:51:04,-0.23,2.58,0.04,-0.01,0.02,-0.02
06/08/2023 19:51:04,-0.24,2.55,0.06,-0.01,0.02,-0.02
06/08/2023 19:51:05,-0.21,2.56,0.02,-0.01,0.03,-0.02
06/08/2023 19:51:05,-0.21,2.54,0.02,-0.01,0.02,-0.02
06/08/2023 19:51:06,-0.26,2.52,0.06,-0.01,0.02,-0.02
06/08/2023 19:51:06,-0.28,2.6,0.06,-0.01,0.02,-0.02
06/08/2023 19:51:07,-0.26,2.61,0.04,-0.01,0.03,-0.02
06/08/2023 19:51:07,-0.24,2.55,0.03,-0.01,0.02,-0.02
06/08/2023 19:51:08,-0.20,2.56,0.02,-0.01,0.02,-0.02
06/08/2023 19:51:08,-0.22,2.56,0.04,-0.01,0.02,-0.02
06/08/2023 19:51:09,-0.24,2.56,0.04,-0.01,0.02,-0.02
06/08/2023 19:51:09,-0.20,2.57,0.03,-0.01,0.02,-0.02
06/08/2023 19:51:10,-0.25,2.59,0.06,-0.01,0.02,-0.02
06/08/2023 19:51:10,-0.23,2.6,0.05,-0.01,0.02,-0.02
06/08/2023 19:51:11,-0.26,2.6,0.08,-0.01,0.02,-0.02
06/08/2023 19:51:11,-0.24,2.61,0.07,-0.01,0.02,-0.02
06/08/2023 19:51:12,-0.26,2.6,0.08,-0.01,0.02,-0.02
06/08/2023 19:51:12,-0.26,2.6,0.07,-0.01,0.02,-0.02
06/08/2023 19:51:13,-0.22,2.58,0.08,-0.01,0.02,-0.02
06/08/2023 19:51:13,-0.28,2.59,0.09,-0.01,0.02,-0.02
06/08/2023 19:51:14,-0.26,2.59,0.07,-0.01,0.02,-0.02
06/08/2023 19:51:14,-0.23,2.57,0.06,-0.01,0.02,-0.02
06/08/2023 19:51:15,-0.19,2.56,0.03,-0.01,0.02,-0.02
06/08/2023 19:51:15,-0.24,2.6,0.06,-0.01,0.02,-0.02
06/08/2023 19:51:16,-0.24,2.56,0.04,-0.01,0.02,-0.02
06/08/2023 19:51:16,-0.21,2.57,0.02,-0.01,0.02,-0.02
06/08/2023 19:51:17,-0.24,2.55,0.04,-0.01,0.02,-0.02
06/08/2023 19:51:17,-0.22,2.6,0.06,-0.01,0.02,-0.02
06/08/2023 19:51:18,-0.19,2.57,0.06,-0.01,0.02,-0.02
06/08/2023 19:51:18,-0.24,2.58,0.07,-0.01,0.02,-0.02
06/08/2023 19:51:19,-0.23,2.59,0.04,-0.01,0.02,-0.02
06/08/2023 19:51:19,-0.22,2.55,0.02,-0.01,0.02,-0.02
06/08/2023 19:51:20,-0.19,3.53,-0.29,0.02,0.02,-0.02
06/08/2023 19:51:20,-0.07,5.53,-0.79,0,0.02,-0.03
06/08/2023 19:51:21,-0.12,5.23,-0.67,-0.01,0.02,-0.05
06/08/2023 19:51:21, 0.05,5.1,-0.9,-0.02,0.03,-0.04
06/08/2023 19:51:22, 0.26,3.06,-0.27,0.01,0.04,-0.02
06/08/2023 19:51:22, 0.05,4.09,0.1,-0.03,-0.01,-0.03
06/08/2023 19:51:23, 0.13,1.88,-1.16,-0.04,0.03,0.01
06/08/2023 19:51:23,-0.31,2.51,-0.16,-0.02,-0.02,0
06/08/2023 19:51:24,-0.68,4.51,-0.8,-0.03,0.08,-0.02
06/08/2023 19:51:24, 0.04,3.92,-0.45,-0.04,0.01,-0.04
06/08/2023 19:51:25,-0.20,3.23,-0.09,-0.02,0.05,-0.02
06/08/2023 19:51:25,-0.53,2.89,0.53,-0.01,0.04,-0.02
06/08/2023 19:51:26, 0.18,3.09,0.31,-0.01,0.09,0
06/08/2023 19:51:26,-0.25,3.56,-0.31,0.01,0.02,-0.01
06/08/2023 19:51:27,-0.17,3.72,0,-0.01,0.04,-0.02
06/08/2023 19:51:27, 0.09,3.82,0.11,0.05,-0.02,-0.04
06/08/2023 19:51:28, 0.06,2.44,0.21,0.08,-0.02,-0.03
06/08/2023 19:51:28, 0.06,3.25,-0.37,0.04,-0.04,-0.04
06/08/2023 19:51:29,-0.15,4.11,0.48,-0.02,0.03,-0.02
06/08/2023 19:51:29,-0.25,3.19,0.2,-0.03,0.07,-0.04
06/08/2023 19:51:30,-0.26,3.03,-0.65,-0.09,0.09,-0.04
06/08/2023 19:51:30,-0.11,3.5,0.27,0,-0.01,-0.03
06/08/2023 19:51:31,-0.48,2.93,0.04,0.02,0.05,-0.03
06/08/2023 19:51:31,-0.14,2.78,-0.06,0.03,0.07,-0.04
06/08/2023 19:51:32,-0.32,2.41,0.1,0.02,0,-0.03
06/08/2023 19:51:32,-0.08,2.55,-0.11,0.05,0,-0.02
06/08/2023 19:51:33,-0.01,3.24,1.1,-0.06,0.08,-0.05
06/08/2023 19:51:33,-0.57,2.96,0.51,-0.01,0.05,-0.03
06/08/2023 19:51:34, 0.02,2.88,-1.29,-0.02,0.04,-0.02
06/08/2023 19:51:34,-0.48,2.61,0.11,0.01,0.04,-0.02
06/08/2023 19:51:35,-0.40,2.53,0.56,0.04,0.03,-0.01
06/08/2023 19:51:35,-0.17,2.43,0.15,0.02,0,-0.01
06/08/2023 19:51:36,-0.31,2.57,0.89,0,0.04,-0.03
06/08/2023 19:51:36,-0.51,2.54,1.37,0.01,-0.1,-0.01
06/08/2023 19:51:37,-0.72,2.59,0.52,0.01,0.06,-0.01
06/08/2023 19:51:37,-0.30,2.72,0.16,-0.02,0.06,-0.02
06/08/2023 19:51:38,-0.19,2.85,1.18,0.03,-0.09,-0.01
06/08/2023 19:51:38, 0.30,2.94,0,0.08,0.05,-0.02
06/08/2023 19:51:39,-0.57,2.53,0.15,0.01,-0.03,-0.01
06/08/2023 19:51:39,-0.47,2.76,0.67,-0.06,0.01,-0.02
06/08/2023 19:51:40,-0.28,2.81,0.03,0,0,-0.01
06/08/2023 19:51:40,-0.13,2.9,0.71,0.06,0.01,-0.02
06/08/2023 19:51:41,-0.18,2.84,-0.34,-0.01,0.02,-0.01
06/08/2023 19:51:41, 0.02,2.38,0.03,0.08,0,-0.02
06/08/2023 19:51:42,-0.21,2.5,-0.74,0.07,-0.03,-0.01
06/08/2023 19:51:42, 0.09,2.08,-1.04,0.06,0.01,-0.04
06/08/2023 19:51:43,-0.03,-0.44,-1.57,-0.04,-0.01,-0.02
06/08/2023 19:51:43,-1.10,1.93,0.73,0.03,-0.03,0.01
06/08/2023 19:51:44, 1.24,2.82,1.02,0.09,-0.03,-0.06
06/08/2023 19:51:44,-0.17,2.98,-0.46,-0.04,0,-0.02
06/08/2023 19:51:45,-0.11,3.07,-1.08,-0.06,0.04,-0.02
06/08/2023 19:51:45,-0.26,2.93,-0.37,-0.05,0.02,-0.03
06/08/2023 19:51:46,-0.68,3.39,-0.41,-0.04,0.06,-0.02
06/08/2023 19:51:46,-0.02,2.74,-0.9,-0.01,0,-0.03
06/08/2023 19:51:47,-0.91,2.84,0.86,-0.03,0.08,-0.03
06/08/2023 19:51:47,-0.34,2.6,1,0.02,0.01,-0.02
06/08/2023 19:51:48,-0.48,2.75,0.53,0.04,-0.02,-0.01
06/08/2023 19:51:48, 0.13,2.46,-0.52,-0.03,0.02,-0.02
06/08/2023 19:51:49,-0.19,2.6,0.44,-0.03,0.05,-0.03
06/08/2023 19:51:49,-0.31,2.6,0.7,0.01,-0.05,-0.01
06/08/2023 19:51:50,-0.07,3.02,1.32,0.03,0,-0.02
06/08/2023 19:51:50,-0.05,2.84,1.01,0.09,-0.01,-0.01
06/08/2023 19:51:51,-0.15,2.76,-0.12,0.05,0,-0.01
06/08/2023 19:51:51,-0.55,2.26,-0.63,0.01,0.04,-0.03
06/08/2023 19:51:52,-0.28,2.46,0.35,-0.04,-0.06,-0.01
06/08/2023 19:51:52,-0.29,2.49,-0.72,0,-0.06,0
06/08/2023 19:51:53,-0.22,2.26,-0.18,-0.02,0.05,-0.02
06/08/2023 19:51:53,-0.40,1.94,-0.67,-0.03,0.04,0
06/08/2023 19:51:54, 0.10,1.69,0.19,0.01,0.01,-0.02
06/08/2023 19:51:54,-0.28,1.7,0.3,-0.03,-0.01,-0.02
06/08/2023 19:51:55,-0.04,1.59,-0.47,0.03,-0.04,-0.01
06/08/2023 19:51:55,-0.50,2.03,0.45,0.04,-0.02,-0.01
06/08/2023 19:51:56,-0.65,2.53,0.21,-0.02,0.03,-0.01
06/08/2023 19:51:56,-0.28,3.08,0.47,0.03,0.03,-0.02
06/08/2023 19:51:57,-0.22,2.87,-0.27,0,0.05,-0.02
06/08/2023 19:51:57,-0.48,2.33,-0.51,-0.02,0.02,-0.01
06/08/2023 19:51:58,-0.40,1.26,0.1,-0.07,0.03,-0.01
06/08/2023 19:51:58,-0.12,1.25,-0.39,0.02,-0.01,-0.02
06/08/2023 19:51:59,-0.39,1.85,-0.07,-0.03,0.05,-0.03
06/08/2023 19:51:59,-0.38,2.29,0.45,-0.03,0.01,-0.01
06/08/2023 19:52:00,-0.25,3,-0.16,0.01,-0.04,-0.02
06/08/2023 19:52:00, 0.03,2.64,-0.45,-0.01,0.02,0
06/08/2023 19:52:01,-0.50,2.47,0.73,-0.02,0.01,0
06/08/2023 19:52:01,-0.40,2.59,0.69,-0.01,0,-0.01
06/08/2023 19:52:02, 0.26,2.16,-0.42,0,0,-0.01
06/08/2023 19:52:02,-0.05,1.88,-0.75,0.01,0.02,-0.02
06/08/2023 19:52:03, 0.09,2.27,-0.13,-0.03,0.04,0
06/08/2023 19:52:03,-0.44,2.26,0.8,0,0.05,-0.02
06/08/2023 19:52:04,-0.74,2.28,0.69,-0.03,0.03,-0.02
06/08/2023 19:52:04,-0.25,2.53,0.23,-0.02,0.02,0
06/08/2023 19:52:05,-0.29,2.34,0.66,0,0.03,-0.01
06/08/2023 19:52:05, 0.16,2.36,-0.4,0,0.01,0.01
06/08/2023 19:52:06,-0.42,2.57,0.24,-0.03,0.02,0
06/08/2023 19:52:06,-0.78,2.32,0.63,0.04,0.01,-0.02
06/08/2023 19:52:07,-0.91,2.66,0.84,-0.03,0.03,-0.02
06/08/2023 19:52:07,-0.58,3.34,0.24,-0.01,0.02,-0.02
06/08/2023 19:52:08,-0.65,3.27,-0.37,-0.02,0.07,-0.02
06/08/2023 19:52:08,-0.53,3.18,-0.55,-0.04,0.08,-0.02
06/08/2023 19:52:09,-0.43,3.14,-0.66,0,0.08,-0.01
06/08/2023 19:52:09,-0.86,3.18,-0.16,0.01,0.06,-0.01
06/08/2023 19:52:10,-1.20,3.39,0.31,-0.05,0.06,-0.01
06/08/2023 19:52:10,-0.77,3.51,0.43,-0.06,0,-0.02
06/08/2023 19:52:11,-0.95,3.44,0.09,-0.04,0.04,-0.01
06/08/2023 19:52:11,-0.75,3.25,-0.1,0,0.03,-0.01
06/08/2023 19:52:12,-0.72,3.4,0.01,-0.03,0.02,0.01
06/08/2023 19:52:12,-0.72,3.12,-0.7,-0.07,-0.05,0.01
06/08/2023 19:52:13,-0.84,3.01,0.06,0.09,-0.02,-0.01
06/08/2023 19:52:13,-0.21,1.97,-0.04,-0.04,0.02,-0.03
06/08/2023 19:52:14,-0.04,2.1,0.23,0.01,-0.01,-0.03
06/08/2023 19:52:14,-0.12,2.08,0.41,-0.01,-0.02,-0.03
06/08/2023 19:52:15,-0.33,2.83,-0.31,-0.02,0.04,-0.01
06/08/2023 19:52:15,-0.59,2.76,0.61,-0.04,0.01,0
06/08/2023 19:52:16,-0.52,1.96,0.52,-0.01,0.03,0
06/08/2023 19:52:16,-0.24,2.99,-0.51,0.01,0.02,0.01
06/08/2023 19:52:17, 0.32,3.08,0.54,-0.05,-0.01,0.03
06/08/2023 19:52:17, 0.29,3.2,0.13,-0.01,0.07,-0.01
06/08/2023 19:52:18, 0.08,2.72,-1.28,0.16,0.03,-0.02
06/08/2023 19:52:18,-0.93,3.13,0.08,0.01,0.08,-0.03
06/08/2023 19:52:19,-0.34,3.32,0.5,-0.07,0.13,-0.01
06/08/2023 19:52:19,-0.43,2.86,0.12,0,-0.05,-0.02
06/08/2023 19:52:20,-0.11,2.85,0.85,-0.03,-0.01,-0.01
06/08/2023 19:52:20,-0.56,3.04,1.46,-0.02,0.08,0
06/08/2023 19:52:21,-0.25,2.5,-0.01,0,0.06,-0.02
06/08/2023 19:52:21,-0.43,2.71,0.63,-0.03,0,0.02
06/08/2023 19:52:22,-0.71,2.36,-0.76,-0.12,-0.01,0.02
06/08/2023 19:52:22,-0.67,3.05,-0.07,-0.1,0.03,-0.01
06/08/2023 19:52:23,-0.27,2.56,0.69,-0.01,0.02,-0.02
06/08/2023 19:52:23,-0.28,2.16,0.01,0,-0.02,-0.03
06/08/2023 19:52:24,-0.37,2.96,0.62,0.02,0.05,0
06/08/2023 19:52:24,-0.85,2.83,0.18,-0.07,0.07,-0.01
06/08/2023 19:52:25,-0.06,3.1,0.05,0.01,-0.04,-0.01
06/08/2023 19:52:25,-0.23,2.82,-0.53,-0.03,0.06,-0.02
06/08/2023 19:52:26,-0.19,3.17,-0.36,-0.1,-0.02,-0.03
06/08/2023 19:52:26,-0.41,2.57,0.7,-0.01,0.09,-0.01
06/08/2023 19:52:27,-0.60,2.45,0,-0.02,0,-0.01
06/08/2023 19:52:27,-0.23,2.37,1.01,-0.01,0.05,-0.02
06/08/2023 19:52:28,-0.44,0.9,0.87,-0.03,0.08,-0.01
06/08/2023 19:52:28,-0.45,1.57,0.07,-0.05,0.12,-0.02
06/08/2023 19:52:29,-0.73,2.04,0.12,0.03,-0.03,0.02
06/08/2023 19:52:29,-0.49,2.92,0.48,0,0.04,-0.02
06/08/2023 19:52:30,-0.17,1.5,-0.08,-0.02,0.03,-0.02
06/08/2023 19:52:30,-0.45,2.27,-0.17,-0.09,0.06,-0.02
06/08/2023 19:52:31,-0.52,2.52,1.9,0.01,0.03,-0.03
06/08/2023 19:52:31, 0.47,1.68,-2.27,0.07,-0.11,-0.02
06/08/2023 19:52:32,-0.52,2.88,0.01,-0.12,0.02,-0.03
06/08/2023 19:52:32,-0.20,2.78,0.41,-0.03,-0.02,-0.02
06/08/2023 19:52:33,-0.18,2.32,0.44,0.02,0,-0.02
06/08/2023 19:52:33,-0.56,2.16,0.19,-0.03,0.03,-0.01
06/08/2023 19:52:34,-0.46,2.35,0.33,0.01,0.02,-0.01
06/08/2023 19:52:34,-0.51,2.51,0.31,-0.05,0.02,-0.01
06/08/2023 19:52:35,-0.31,2.02,-0.56,0,0,-0.02
06/08/2023 19:52:35,-0.51,1.71,-0.1,0.02,0.06,-0.03
06/08/2023 19:52:36,-0.49,2.07,0.51,0,0.03,-0.02
06/08/2023 19:52:36,-0.29,1.86,0.64,-0.02,0.02,-0.02
06/08/2023 19:52:37,-0.27,1.68,-0.19,0.01,-0.02,-0.02
06/08/2023 19:52:37, 0.52,2.57,-0.21,-0.01,0.08,-0.02
06/08/2023 19:52:38,-0.42,2.12,-0.6,-0.08,0.02,-0.03
06/08/2023 19:52:38,-0.42,2.65,1.04,0.12,0.01,-0.03
06/08/2023 19:52:39,-0.32,2.22,-0.2,0.02,0.06,-0.02
06/08/2023 19:52:39, 0.02,2.53,0.06,-0.04,0.23,0.02
06/08/2023 19:52:40, 0.02,1.97,-0.26,-0.03,0.1,0.01
06/08/2023 19:52:40,-0.03,1.23,0.41,-0.02,0.01,-0.01
06/08/2023 19:52:41,-0.15,0.68,-0.26,0,0.06,-0.02
06/08/2023 19:52:41,-0.11,0.75,-0.02,-0.01,0,-0.01
06/08/2023 19:52:42,-0.23,2.4,-0.1,-0.03,0.03,0
06/08/2023 19:52:42, 0.07,1.63,-0.04,-0.05,0.04,-0.02
06/08/2023 19:52:43,-0.54,2.19,0.44,0.01,-0.01,-0.01
06/08/2023 19:52:43,-0.50,2.28,0.2,-0.03,-0.02,-0.03
06/08/2023 19:52:44,-0.61,1.98,0.24,0,0.01,-0.04
06/08/2023 19:52:44,-0.62,2.38,0.15,-0.01,0.02,-0.03
06/08/2023 19:52:45,-0.06,2.05,-0.05,-0.02,0.04,-0.02
06/08/2023 19:52:45,-0.45,1.84,0.45,-0.01,0.01,-0.02
06/08/2023 19:52:46,-0.49,1.36,0.42,-0.01,0.04,-0.03
06/08/2023 19:52:46,-0.45,2.15,0.25,0.01,0.03,-0.02
06/08/2023 19:52:47,-0.28,2.37,0.1,0,0,-0.02
06/08/2023 19:52:47,-0.33,2.18,0.04,-0.01,0.01,-0.02
06/08/2023 19:52:48,-0.35,2.07,0.2,0,0.01,-0.02
06/08/2023 19:52:48,-0.46,2.17,0.13,-0.01,0.03,-0.02
06/08/2023 19:52:49,-0.43,2.23,0.22,-0.02,0.03,-0.02
06/08/2023 19:52:49,-0.38,2.49,0.03,-0.02,0.04,-0.02
06/08/2023 19:52:50,-0.41,3.03,-0.1,0,0.02,-0.02
06/08/2023 19:52:50,-0.17,3.88,-0.33,0,0.03,-0.03
06/08/2023 19:52:51,-0.26,4.11,-0.34,0.01,0.03,-0.04
06/08/2023 19:52:51,-0.18,2.43,-0.13,0.02,-0.02,-0.03
06/08/2023 19:52:52,-0.26,2.07,-0.89,0,0.01,-0.03
06/08/2023 19:52:52,-0.50,2.46,0.05,0,-0.01,-0.02
06/08/2023 19:52:53,-0.34,2.49,0.14,0,0.02,-0.03
06/08/2023 19:52:53,-0.53,3.37,-0.1,0.01,0,-0.01
06/08/2023 19:52:54,-0.40,4.5,-0.66,-0.01,0.02,-0.01
06/08/2023 19:52:54,-0.57,2.38,0.06,-0.07,0.02,-0.01
06/08/2023 19:52:55,-0.14,2.49,0.22,0.01,0.02,-0.01
06/08/2023 19:52:55,-0.32,4.28,-0.34,-0.01,0.02,0
06/08/2023 19:52:56,-0.10,3.85,-0.37,0,0,-0.01
06/08/2023 19:52:56,-0.22,2.91,0.14,-0.05,-0.01,-0.02
06/08/2023 19:52:57,-0.39,2.7,0.18,0.02,0.06,-0.03
06/08/2023 19:52:57,-0.01,3.14,-0.67,0.01,0.04,-0.04
06/08/2023 19:52:58,-0.16,3.07,0.46,0.01,0.05,-0.02
06/08/2023 19:52:58,-0.11,2.78,-0.39,-0.03,0.04,-0.01
06/08/2023 19:52:59,-0.07,2.25,0.86,0.02,-0.01,-0.03
06/08/2023 19:52:59, 0.08,2.92,-0.81,0.01,0,-0.03
06/08/2023 19:53:00,-0.10,3.48,0.04,-0.06,0.04,-0.03
06/08/2023 19:53:00,-0.72,3.24,0.3,-0.01,-0.04,-0.02
06/08/2023 19:53:01,-0.28,2.52,0.11,-0.07,0.03,-0.01
06/08/2023 19:53:01,-0.45,3.37,0.53,-0.01,0.01,-0.01
06/08/2023 19:53:02,-0.64,3.2,-0.1,0.04,0.01,-0.01
06/08/2023 19:53:02,-0.39,2.75,-0.5,-0.05,0.02,0
06/08/2023 19:53:03,-0.46,2.68,0.4,0,-0.03,-0.02
06/08/2023 19:53:03,-0.64,2.55,2.4,0.04,0.05,-0.04
06/08/2023 19:53:04,-0.57,2.28,-0.04,-0.04,0.01,-0.02
06/08/2023 19:53:04,-0.36,2.44,-0.49,-0.05,0.06,-0.02
06/08/2023 19:53:05,-0.39,2.68,-0.08,-0.07,0.01,-0.02
06/08/2023 19:53:05,-0.52,2.03,0.31,-0.03,0.08,-0.01
06/08/2023 19:53:06,-0.03,0.74,-0.65,0.03,-0.05,-0.01
06/08/2023 19:53:06,-0.80,1.79,-0.07,-0.09,-0.01,-0.02
06/08/2023 19:53:07,-0.55,1.75,1.07,-0.07,0.04,-0.02
06/08/2023 19:53:07,-0.40,2.56,-0.04,-0.05,0.01,-0.01
06/08/2023 19:53:08,-0.04,3.12,0.04,-0.02,0,0.01
06/08/2023 19:53:08,-0.50,3.38,0.42,-0.02,0.08,-0.03
06/08/2023 19:53:09,-0.09,2.47,-0.08,0.02,0,-0.02
06/08/2023 19:53:09,-0.02,2.9,-0.64,-0.02,0.07,-0.02
06/08/2023 19:53:10,-0.29,2.94,-0.22,-0.08,0.03,-0.03
06/08/2023 19:53:10,-0.50,3.1,0.29,0,0.02,-0.03
06/08/2023 19:53:11,-0.26,2.03,0.66,-0.06,0.06,-0.03
06/08/2023 19:53:11,-0.21,2.21,0.15,0.02,-0.04,-0.01
06/08/2023 19:53:12, 0.00,2.47,0.53,0.01,0.04,0.02
06/08/2023 19:53:12,-0.49,2.77,0.4,0.01,0,0
06/08/2023 19:53:13,-0.09,2.51,-0.02,0.04,0.03,-0.03
06/08/2023 19:53:13, 0.21,2.16,-0.38,0.02,0.07,-0.02
06/08/2023 19:53:14,-0.19,1.82,-1.58,0.09,-0.02,-0.01
06/08/2023 19:53:14,-0.17,2.59,-0.04,-0.01,0.01,-0.02
06/08/2023 19:53:15,-0.61,2.35,0.37,0,0,-0.02
06/08/2023 19:53:15,-0.12,2.49,-0.54,-0.02,-0.04,-0.02
06/08/2023 19:53:16, 0.19,2.78,0.05,-0.04,-0.06,-0.01
06/08/2023 19:53:16,-1.03,2.5,0.1,-0.04,0.03,0
06/08/2023 19:53:17,-0.23,2.65,-0.74,-0.02,0.02,-0.02
06/08/2023 19:53:17, 0.03,2.94,-0.13,-0.01,0.03,-0.02
06/08/2023 19:53:18,-0.99,3.49,1.37,0,0.05,0
06/08/2023 19:53:18,-0.22,2.29,0.34,-0.01,0.07,-0.01
06/08/2023 19:53:19,-0.82,1.8,-0.31,0.07,-0.02,-0.01
06/08/2023 19:53:19, 0.06,2.05,-2.2,-0.02,0.12,-0.02
06/08/2023 19:53:20,-0.03,2.55,-0.48,-0.02,0.04,-0.03
06/08/2023 19:53:20,-0.13,2.63,-0.23,-0.05,0.04,-0.04
06/08/2023 19:53:21,-0.34,2.91,0.46,0.03,-0.03,-0.03
06/08/2023 19:53:21,-0.01,2.8,0.52,0.07,-0.07,0.01
06/08/2023 19:53:22,-0.60,2.82,-1.05,-0.02,0.04,-0.02
06/08/2023 19:53:22,-0.66,2.19,0.65,-0.04,0.01,0
06/08/2023 19:53:23,-0.36,2.05,-0.22,-0.07,0.01,-0.01
06/08/2023 19:53:23,-0.45,2.33,0.44,-0.05,0.07,0
06/08/2023 19:53:24,-0.14,2.17,0.34,0.02,0.02,-0.02
06/08/2023 19:53:24,-0.43,2.04,0.63,0.13,-0.02,-0.02
06/08/2023 19:53:25,-0.92,2.13,-0.55,-0.01,0.08,-0.03
06/08/2023 19:53:25,-0.33,2.34,-0.18,-0.01,0.02,-0.04
06/08/2023 19:53:26,-0.11,2.87,1.5,0.09,-0.02,-0.02
06/08/2023 19:53:26,-0.53,2.55,-0.42,-0.01,0.05,-0.04
06/08/2023 19:53:27,-0.37,3.03,-0.18,0.02,0.02,-0.02
06/08/2023 19:53:27,-0.13,1.96,-0.99,-0.07,0.04,-0.02
06/08/2023 19:53:28,-0.44,1.84,-0.27,-0.09,-0.01,-0.02
06/08/2023 19:53:28,-0.24,2.11,0.19,-0.05,0.04,-0.04
06/08/2023 19:53:29, 0.02,2.03,0.04,-0.03,-0.02,-0.03
06/08/2023 19:53:29,-0.48,1.94,0.23,0.04,0.03,-0.02
06/08/2023 19:53:30,-0.40,1.67,-0.23,0,0.02,-0.02
06/08/2023 19:53:30,-0.43,2.11,-0.77,-0.07,0.03,-0.02
06/08/2023 19:53:31,-0.40,1.66,0.79,0.03,0.02,-0.03
06/08/2023 19:53:31,-0.00,1.31,0.79,-0.01,0.02,-0.02
06/08/2023 19:53:32,-0.16,1.74,0.4,-0.02,0.03,-0.03
06/08/2023 19:53:32,-0.20,1.56,0.07,0.13,0.02,-0.01
06/08/2023 19:53:33,-0.25,2.53,-0.24,0,-0.04,-0.02
06/08/2023 19:53:33,-0.52,2,0.54,0.01,0,-0.02
06/08/2023 19:53:34, 0.17,2.04,0.56,0.01,0,-0.03
06/08/2023 19:53:34, 0.21,2.09,-0.12,0.07,-0.06,-0.03
06/08/2023 19:53:35,-0.10,2.13,0.14,-0.02,-0.01,-0.03
06/08/2023 19:53:35,-0.05,2.04,0.29,-0.06,0.07,-0.03
06/08/2023 19:53:36, 0.29,1.12,-2.19,0.01,0.07,-0.03
06/08/2023 19:53:36, 0.09,1.62,0.12,-0.03,0.02,-0.02
06/08/2023 19:53:37,-0.33,1.55,0,-0.05,-0.01,-0.02
06/08/2023 19:53:37,-1.05,1.46,0.45,0,-0.03,-0.02
06/08/2023 19:53:38,-0.47,1.44,0.36,-0.03,0.06,-0.01
06/08/2023 19:53:38, 0.01,1.33,0.38,0,0,-0.02
06/08/2023 19:53:39,-0.49,2.06,0.15,0.01,0,-0.02
06/08/2023 19:53:39,-0.33,2,0.25,0,0.03,0
06/08/2023 19:53:40,-0.64,1.98,0.31,0,0.02,-0.02
06/08/2023 19:53:40,-0.27,1.91,0.29,0,0.01,-0.02
06/08/2023 19:53:41,-0.45,1.93,0.17,-0.01,0.02,-0.01
06/08/2023 19:53:41,-0.38,1.88,0.23,-0.01,0.02,-0.02
06/08/2023 19:53:42,-0.40,2.71,0.01,0.01,0.02,-0.02
06/08/2023 19:53:42,-0.39,2.54,0.09,-0.01,0.02,-0.02
06/08/2023 19:53:43,-0.40,2.49,0.12,-0.01,0.02,-0.02
06/08/2023 19:53:43,-0.43,2.49,0.09,-0.01,0.02,-0.02
06/08/2023 19:53:44,-0.42,2.5,0.1,-0.01,0.02,-0.02
06/08/2023 19:53:44,-0.43,2.48,0.12,-0.01,0.02,-0.02
06/08/2023 19:53:45,-0.41,2.49,0.12,-0.01,0.02,-0.02
06/08/2023 19:53:45,-0.43,2.49,0.09,-0.01,0.02,-0.02
06/08/2023 19:53:46,-0.43,2.49,0.11,-0.01,0.02,-0.02
06/08/2023 19:53:46,-0.40,2.49,0.11,-0.01,0.02,-0.02
06/08/2023 19:53:47,-0.40,2.48,0.08,-0.01,0.03,-0.02
06/08/2023 19:53:47,-0.40,2.47,0.06,-0.01,0.02,-0.02
06/08/2023 19:53:48,-0.39,2.47,0.07,-0.01,0.02,-0.02
06/08/2023 19:53:48,-0.42,2.47,0.1,-0.01,0.02,-0.02
06/08/2023 19:53:49,-0.45,2.49,0.13,-0.01,0.02,-0.02
06/08/2023 19:53:49,-0.41,2.47,0.09,-0.01,0.02,-0.02
06/08/2023 19:53:50,-0.37,2.45,0.07,-0.01,0.02,-0.02
06/08/2023 19:53:50,-0.40,2.48,0.07,-0.01,0.02,-0.02
06/08/2023 19:53:51,-0.38,2.47,0.07,-0.01,0.02,-0.02
06/08/2023 19:53:51,-0.39,2.47,0.1,-0.01,0.02,-0.02
06/08/2023 19:53:52,-0.41,2.49,0.07,-0.01,0.02,-0.02
06/08/2023 19:53:52,-0.43,2.5,0.07,-0.01,0.02,-0.02
06/08/2023 19:53:53,-0.43,2.5,0.11,-0.01,0.02,-0.02
06/08/2023 19:53:53,-0.42,2.5,0.12,-0.01,0.02,-0.02
06/08/2023 19:53:54,-0.44,2.5,0.12,-0.01,0.02,-0.02
06/08/2023 19:53:54,-0.43,2.47,0.08,-0.01,0.02,-0.02
06/08/2023 19:53:55,-0.39,2.47,0.11,-0.01,0.02,-0.02
06/08/2023 19:53:55,-0.40,2.48,0.09,-0.01,0.03,-0.02
06/08/2023 19:53:56,-0.41,2.46,0.05,-0.01,0.02,-0.02
06/08/2023 19:53:56,-0.38,2.46,0.07,-0.01,0.02,-0.02
06/08/2023 19:53:57,-0.37,2.47,0.08,-0.01,0.02,-0.02
06/08/2023 19:53:57,-0.40,2.47,0.06,-0.01,0.02,-0.02
06/08/2023 19:53:58,-0.42,2.45,0.07,-0.01,0.02,-0.02
06/08/2023 19:53:58,-0.31,2.62,0.03,-0.01,0.01,-0.02
06/08/2023 19:53:59,-0.43,3.55,-0.18,0.01,0.02,-0.02
06/08/2023 19:53:59,-0.29,4.64,-0.82,0,0.03,-0.02
06/08/2023 19:54:00,-0.47,4.4,-0.58,0,0,-0.02
06/08/2023 19:54:00,-0.37,2.42,0.01,0,0,-0.01
06/08/2023 19:54:01,-0.60,2.08,0.44,-0.01,0,-0.02
06/08/2023 19:54:01,-0.61,2.31,0.3,0.01,0.01,-0.01
06/08/2023 19:54:02,-0.47,2.5,0.46,0,0.01,-0.03
06/08/2023 19:54:02,-0.61,2.65,0.36,-0.03,0.03,-0.03
06/08/2023 19:54:03,-0.98,2.54,0.28,-0.02,0.06,-0.03
06/08/2023 19:54:03,-0.26,2.88,0.26,0.01,0.03,-0.02
06/08/2023 19:54:04,-0.63,3.55,-0.16,0,0.03,-0.02
06/08/2023 19:54:04,-0.48,2.32,-0.06,-0.05,0.07,-0.02
06/08/2023 19:54:05,-0.42,2.83,-0.02,-0.04,0.01,0
06/08/2023 19:54:05,-0.45,2.67,0.49,-0.02,0.15,-0.03
06/08/2023 19:54:06,-0.56,1.73,-0.02,0.02,0.01,-0.01
06/08/2023 19:54:06,-0.69,2.44,0.46,0.01,0.03,-0.03
06/08/2023 19:54:07, 0.01,3.67,-0.29,0,0.1,-0.04
06/08/2023 19:54:07,-0.91,3.56,0.99,-0.04,-0.05,-0.02
06/08/2023 19:54:08,-1.03,2.54,0.01,-0.02,-0.02,-0.01
06/08/2023 19:54:08,-1.10,1.44,0.46,-0.01,0.06,-0.03
06/08/2023 19:54:09, 0.16,3.53,-0.59,0.07,0.07,-0.05
06/08/2023 19:54:09,-0.20,2.68,0.08,0.02,-0.04,-0.01
06/08/2023 19:54:10,-0.81,3.97,-0.54,0.01,0,-0.02
06/08/2023 19:54:10,-0.67,2.71,-0.25,-0.06,0.05,-0.04
06/08/2023 19:54:11,-0.13,2.62,-0.2,-0.03,0.07,-0.07
06/08/2023 19:54:11, 1.45,3.42,-1.92,0.03,0.12,-0.05
06/08/2023 19:54:12, 1.10,3.41,-2.05,0.1,-0.18,0.03
06/08/2023 19:54:12,-0.17,4.03,-0.77,-0.01,0,0
06/08/2023 19:54:13,-0.14,3.62,0.24,-0.11,0.01,-0.03
06/08/2023 19:54:13,-0.40,2.65,0.11,0.06,-0.03,-0.04
06/08/2023 19:54:14,-0.42,3.39,0.02,-0.06,0.02,-0.03
06/08/2023 19:54:14,-0.45,3.2,0.83,0.01,0.01,-0.03
06/08/2023 19:54:15,-0.34,2.27,0.07,0.02,0.01,-0.03
06/08/2023 19:54:15,-0.82,2.26,0.09,0.02,-0.01,-0.01
06/08/2023 19:54:16,-0.41,2.86,0.31,-0.01,0.06,-0.02
06/08/2023 19:54:16,-0.78,3,0.01,0.03,0.03,-0.04
06/08/2023 19:54:17,-0.53,3.11,0.4,0.03,0.1,-0.02
06/08/2023 19:54:17,-1.12,2.85,-0.33,-0.04,0.06,-0.02
06/08/2023 19:54:18,-0.72,2.42,-0.75,-0.05,-0.06,-0.02
06/08/2023 19:54:18,-0.06,2.56,-0.13,-0.05,0.06,-0.05
06/08/2023 19:54:19,-0.34,2.92,0.82,0.02,0.1,-0.05
06/08/2023 19:54:19,-0.88,2.26,0.34,-0.05,0.09,-0.03
06/08/2023 19:54:20,-0.58,2.65,0.06,-0.05,0.09,-0.02
06/08/2023 19:54:20,-0.36,3.1,0.58,0,0.05,-0.02
06/08/2023 19:54:21,-1.09,2.56,1,0,0.01,-0.04
06/08/2023 19:54:21,-0.48,2.58,-0.31,-0.03,-0.02,-0.02
06/08/2023 19:54:22,-1.11,3.07,0.49,0.04,0.09,-0.01
06/08/2023 19:54:22,-1.45,2.54,0.34,-0.03,-0.01,-0.02
06/08/2023 19:54:23,-0.77,3.39,-0.26,-0.1,0.01,-0.01
06/08/2023 19:54:23,-1.05,3.22,0.71,-0.02,-0.02,-0.03
06/08/2023 19:54:24,-0.92,2.91,0.56,0.03,0.02,-0.04
06/08/2023 19:54:24,-0.49,2.84,-0.38,-0.01,-0.01,-0.03
06/08/2023 19:54:25,-0.74,2.6,-0.08,0.01,-0.01,-0.02
06/08/2023 19:54:25,-0.47,3.05,-0.46,-0.06,0,-0.02
06/08/2023 19:54:26,-0.54,2.83,0.05,-0.06,0,-0.03
06/08/2023 19:54:26,-0.91,2.85,0.29,0.01,0.05,-0.03
06/08/2023 19:54:27,-0.52,2.77,-0.02,-0.03,0.03,-0.03
06/08/2023 19:54:27,-0.40,3.18,-0.34,0,-0.05,-0.02
06/08/2023 19:54:28,-0.83,2.37,0.57,-0.01,-0.04,-0.04
06/08/2023 19:54:28,-0.16,2.38,0.05,-0.07,0.01,-0.06
06/08/2023 19:54:29,-0.37,3.61,-0.18,0,0.03,-0.05
06/08/2023 19:54:29,-0.32,2.98,-0.9,-0.07,0.1,-0.06
06/08/2023 19:54:30,-1.12,2.85,0.92,-0.01,0.02,-0.03
06/08/2023 19:54:30,-1.18,2.2,0.33,0.05,-0.01,-0.01
06/08/2023 19:54:31,-0.62,2.09,0.31,-0.01,-0.05,0
06/08/2023 19:54:31,-0.86,2.03,-0.07,-0.02,-0.01,0
06/08/2023 19:54:32,-0.37,2.38,-0.19,0,0.03,-0.01
06/08/2023 19:54:32,-0.50,2.45,0.16,-0.01,0.05,-0.03
06/08/2023 19:54:33,-0.14,2.16,-0.36,0.12,0.02,-0.02
06/08/2023 19:54:33,-0.84,1.83,-0.79,-0.06,0.01,-0.04
06/08/2023 19:54:34,-0.81,2.1,-0.21,-0.01,0.02,0
06/08/2023 19:54:34,-1.32,1.91,0.46,-0.11,0.03,-0.01
06/08/2023 19:54:35,-0.74,1.8,0.13,0.05,-0.05,-0.01
06/08/2023 19:54:35,-0.42,2.52,0.8,-0.07,0.03,-0.01
06/08/2023 19:54:36,-0.60,2.76,0.34,0.01,-0.05,-0.01
06/08/2023 19:54:36,-0.58,2.95,0.1,0.03,-0.04,0
06/08/2023 19:54:37, 0.29,2.75,0.33,0,0.12,-0.03
06/08/2023 19:54:37,-0.16,3.37,0.38,-0.05,-0.07,-0.02
06/08/2023 19:54:38,-0.10,1.71,0,0.1,-0.03,-0.01
06/08/2023 19:54:38,-0.19,2.24,-0.63,0,0.03,0
06/08/2023 19:54:39,-0.61,2.81,-0.75,0.01,0.07,-0.01
06/08/2023 19:54:39,-0.60,2.6,1.11,-0.05,0.09,-0.02
06/08/2023 19:54:40,-0.25,1.76,0.06,-0.02,-0.05,-0.02
06/08/2023 19:54:40,-0.43,1.07,0.3,0.01,-0.05,-0.03
06/08/2023 19:54:41,-0.38,0.29,0.47,-0.05,0.04,-0.02
06/08/2023 19:54:41,-0.60,0.91,0.04,0.02,-0.01,-0.02
06/08/2023 19:54:42,-0.18,0.7,0.25,-0.02,-0.01,-0.01
06/08/2023 19:54:42,-0.44,0.89,0.71,0.05,0.02,-0.02
06/08/2023 19:54:43,-0.47,0.17,0.41,-0.01,0.01,-0.02
06/08/2023 19:54:43,-0.34,0.66,0.84,0,0.03,-0.02
06/08/2023 19:54:44,-0.28,1.27,0.63,0.01,0.02,-0.02
06/08/2023 19:54:44,-0.23,2,0.35,0.01,0.02,-0.02
06/08/2023 19:54:45,-0.19,2.01,0.11,-0.01,0.01,-0.02
06/08/2023 19:54:45,-0.16,2.24,-0.24,0.02,0.02,-0.01
06/08/2023 19:54:46,-0.25,1.82,0.1,-0.01,0.02,-0.03
06/08/2023 19:54:46,-0.23,2.39,0.05,0,0.02,-0.02
06/08/2023 19:54:47,-0.19,2.59,0.03,-0.01,0.02,-0.02
06/08/2023 19:54:47,-0.20,2.59,0.05,-0.01,0.02,-0.02
06/08/2023 19:54:48,-0.18,2.6,0.05,-0.01,0.02,-0.02
06/08/2023 19:54:48,-0.20,2.59,0.05,-0.01,0.02,-0.02
06/08/2023 19:54:49,-0.20,2.6,0.06,-0.01,0.02,-0.02
06/08/2023 19:54:49,-0.19,2.59,0.05,-0.01,0.02,-0.02
06/08/2023 19:54:50,-0.21,2.62,0.05,-0.01,0.02,-0.02
06/08/2023 19:54:50,-0.20,2.58,0.04,-0.01,0.02,-0.02
06/08/2023 19:54:51,-0.21,2.61,0.04,-0.01,0.02,-0.02
06/08/2023 19:54:51,-0.21,2.62,0.07,-0.01,0.02,-0.02
06/08/2023 19:54:52,-0.24,2.63,0.09,-0.01,0.02,-0.02
06/08/2023 19:54:52,-0.24,2.62,0.11,-0.01,0.02,-0.02
06/08/2023 19:54:53,-0.23,2.64,0.1,-0.01,0.02,-0.02
06/08/2023 19:54:53,-0.23,2.61,0.08,-0.01,0.02,-0.02
06/08/2023 19:54:54,-0.25,2.61,0.1,-0.01,0.02,-0.02
06/08/2023 19:54:54,-0.23,2.6,0.08,-0.01,0.02,-0.02
06/08/2023 19:54:55,-0.22,2.61,0.06,-0.01,0.03,-0.02
06/08/2023 19:54:55,-0.20,2.58,0.03,-0.01,0.02,-0.02
06/08/2023 19:54:56,-0.20,2.57,0.03,-0.01,0.02,-0.02
06/08/2023 19:54:56,-0.19,2.58,0.05,-0.01,0.02,-0.02
06/08/2023 19:54:57,-0.21,2.6,0.03,-0.01,0.02,-0.02
06/08/2023 19:54:57,-0.20,2.61,0.04,-0.01,0.02,-0.02
06/08/2023 19:54:58,-0.17,2.6,0.05,-0.01,0.02,-0.02
06/08/2023 19:54:58,-0.22,2.62,0.02,-0.01,0.02,-0.02
06/08/2023 19:54:59,-0.22,2.62,0.06,-0.01,0.02,-0.02
06/08/2023 19:54:59,-0.21,2.61,0.06,-0.01,0.02,-0.02
06/08/2023 19:55:00,-0.19,2.61,0.06,-0.01,0.02,-0.02
06/08/2023 19:55:00,-0.22,2.64,0.09,-0.01,0.02,-0.02
06/08/2023 19:55:01,-0.25,2.61,0.09,-0.01,0.02,-0.02
06/08/2023 19:55:01,-0.23,2.66,0.07,-0.01,0.02,-0.02
06/08/2023 19:55:02,-0.25,2.53,0.11,-0.01,0.02,-0.02
06/08/2023 19:55:02,-0.26,2.63,0.14,-0.01,0.02,-0.02
06/08/2023 19:55:03,-0.16,2.59,0.02,0,0.03,-0.02
06/08/2023 19:55:03,-0.23,2.8,0.01,-0.01,0.03,-0.02
06/08/2023 19:55:04,-0.19,2.85,-0.02,-0.01,0.01,-0.02
06/08/2023 19:55:04,-0.24,2.72,0.01,-0.01,0.03,-0.02
06/08/2023 19:55:05,-0.26,2.41,0.1,-0.01,0.02,-0.01
06/08/2023 19:55:05,-0.11,4.34,-0.44,0.03,0.01,-0.02
06/08/2023 19:55:06,-0.16,4.73,-0.52,0,0.01,-0.01
06/08/2023 19:55:06,-0.34,5,-0.57,-0.01,-0.01,-0.01
06/08/2023 19:55:07,-0.16,2.05,-0.01,-0.04,0.06,-0.03
06/08/2023 19:55:07, 0.20,3.59,-0.47,0.02,0.01,-0.04
06/08/2023 19:55:08, 0.36,2.41,0.17,0.01,-0.05,-0.16
06/08/2023 19:55:08, 1.10,3.47,-0.11,0.01,-0.09,-0.3
06/08/2023 19:55:09, 1.50,2.37,0.02,0.01,-0.14,-0.43
06/08/2023 19:55:09, 3.39,3.63,0.65,0,0.12,-0.6
06/08/2023 19:55:10, 4.96,3.36,-0.26,-0.04,0.09,-0.57
06/08/2023 19:55:10, 2.40,4.57,-0.28,-0.03,-0.17,-0.42
06/08/2023 19:55:11, 1.64,4.5,-1.08,0.01,-0.07,-0.18
06/08/2023 19:55:11, 0.82,4.3,-0.72,0.02,0.02,-0.09
06/08/2023 19:55:12, 1.21,3.34,-1.27,-0.22,0.08,-0.08
06/08/2023 19:55:12, 0.96,2.63,0.71,0,0.01,-0.06
06/08/2023 19:55:13, 0.39,5.54,0.76,-0.02,0.13,-0.04
06/08/2023 19:55:13, 1.01,4.66,-0.42,0.04,0.13,-0.05
06/08/2023 19:55:14, 0.36,3.09,-2.76,-0.06,0.01,-0.01
06/08/2023 19:55:14,-0.33,3.43,-0.23,0.01,0.01,-0.04
06/08/2023 19:55:15, 0.15,2.77,-0.13,0.01,0,-0.01
06/08/2023 19:55:15,-0.29,2.48,0.46,-0.08,0.01,0.01
06/08/2023 19:55:16,-0.18,2.28,0.07,0,-0.03,0
06/08/2023 19:55:16, 0.10,2.07,0.39,0.02,0.02,-0.02
06/08/2023 19:55:17, 0.10,2.87,0.07,0.1,0.13,-0.04
06/08/2023 19:55:17,-0.18,2.74,0.58,0.05,0.02,-0.04
06/08/2023 19:55:18,-0.16,2.79,0.32,-0.02,0.05,-0.02
06/08/2023 19:55:18,-0.75,1.95,-0.06,-0.03,0,0
06/08/2023 19:55:19,-0.44,1.98,0.12,0.01,-0.03,0.01
06/08/2023 19:55:19,-0.25,2.17,-0.37,-0.02,0.05,0
06/08/2023 19:55:20,-0.83,1.86,0.14,-0.01,0.04,-0.01
06/08/2023 19:55:20, 0.10,1.68,0.27,-0.03,0.03,-0.02
06/08/2023 19:55:21,-0.23,3.04,0.12,0.05,0,-0.02
06/08/2023 19:55:21,-0.02,2.35,0.6,0,0.02,-0.02
06/08/2023 19:55:22, 0.00,2.51,-0.92,-0.03,0.04,-0.02
06/08/2023 19:55:22,-0.24,2.73,-0.1,-0.06,0,-0.01
06/08/2023 19:55:23,-0.35,2.02,0.51,0.03,0.01,-0.01
06/08/2023 19:55:23, 1.12,1.66,-0.61,0.05,0.04,-0.04
06/08/2023 19:55:24, 0.09,2.51,0.13,0.01,-0.01,-0.02
06/08/2023 19:55:24, 0.09,2.45,0.04,0.04,-0.02,-0.02
06/08/2023 19:55:25, 0.08,2.53,0.45,0,-0.01,-0.03
06/08/2023 19:55:25,-0.52,3.02,-0.11,0,0.06,-0.03
06/08/2023 19:55:26,-0.57,3.02,-0.03,-0.02,-0.03,0
06/08/2023 19:55:26,-0.53,2.8,0.37,0.01,0,0
06/08/2023 19:55:27,-0.19,1.86,0.21,-0.03,-0.03,0
06/08/2023 19:55:27,-0.75,3.96,0.53,-0.04,0,-0.01
06/08/2023 19:55:28,-0.15,4.2,0.31,0.01,0.06,-0.01
06/08/2023 19:55:28,-1.38,2.61,-0.09,-0.06,-0.06,-0.02
06/08/2023 19:55:29, 0.16,1.29,0.26,-0.04,0.01,-0.02
06/08/2023 19:55:29,-0.68,1.53,-0.01,0.02,-0.01,-0.01
06/08/2023 19:55:30,-0.52,2.59,1.13,0,0.08,-0.01
06/08/2023 19:55:30, 0.08,2.07,0.9,0.02,0.13,-0.01
06/08/2023 19:55:31,-0.17,2.47,0.52,-0.02,0.03,-0.02
06/08/2023 19:55:31,-0.12,3.11,-0.29,0,0,-0.01
06/08/2023 19:55:32, 0.04,2.81,-0.08,0.04,-0.01,-0.02
06/08/2023 19:55:32,-0.06,2.82,-0.27,-0.03,0.02,-0.05
06/08/2023 19:55:33,-0.02,3.66,-0.16,-0.01,0,-0.04
06/08/2023 19:55:33, 0.07,3.9,-0.05,-0.02,0.06,-0.02
06/08/2023 19:55:34, 0.22,3.69,-0.37,0.01,-0.04,-0.01
06/08/2023 19:55:34,-0.20,3.71,0.01,0,-0.02,0.01
06/08/2023 19:55:35,-0.36,2.54,0.3,-0.05,0.04,0.01
06/08/2023 19:55:35,-0.17,2.29,0.89,0.07,0.07,0
06/08/2023 19:55:36,-0.42,2.74,0.64,0.05,0.03,0.01
06/08/2023 19:55:36, 0.11,2.2,-0.13,0.05,-0.02,-0.02
06/08/2023 19:55:37,-0.01,1.86,-0.21,0.01,0.02,-0.03
06/08/2023 19:55:37,-0.13,3.71,-0.45,0.06,0.02,-0.03
06/08/2023 19:55:38,-0.17,2.21,-0.1,0.01,0.03,-0.03
06/08/2023 19:55:38, 0.06,2.12,-0.36,-0.02,0.09,-0.03
06/08/2023 19:55:39,-0.40,2.69,-0.42,-0.07,-0.01,0
06/08/2023 19:55:39, 0.14,3.06,-0.19,-0.03,0.11,-0.02
06/08/2023 19:55:40,-0.15,2.83,0.39,-0.03,0.04,-0.04
06/08/2023 19:55:40,-0.03,2.18,0.26,-0.06,-0.02,-0.03
06/08/2023 19:55:41,-0.38,1.64,0.69,-0.01,0.02,-0.03
06/08/2023 19:55:41,-0.05,3.21,-0.18,0.02,0.01,-0.02
06/08/2023 19:55:42,-0.44,3.13,0.05,0.02,0.01,0
06/08/2023 19:55:42,-0.31,3.23,-0.1,-0.02,0.01,0
06/08/2023 19:55:43,-0.35,2.45,-0.08,-0.03,0.05,0
06/08/2023 19:55:43, 0.36,2.64,0.11,0.05,0,-0.04
06/08/2023 19:55:44,-0.83,2.31,0.79,-0.01,0.06,-0.02
06/08/2023 19:55:44, 0.01,2.72,0.06,0.01,0.06,-0.02
06/08/2023 19:55:45,-0.33,2.65,0.32,0.01,0.03,-0.02
06/08/2023 19:55:45,-0.24,2.72,0.07,0.01,0,-0.02
06/08/2023 19:55:46,-1.08,2.56,0.51,-0.04,0.03,-0.03
06/08/2023 19:55:46,-0.13,2.54,-0.22,-0.04,-0.02,-0.01
06/08/2023 19:55:47, 0.01,2.6,-0.18,-0.04,0,-0.03
06/08/2023 19:55:47,-0.58,3.07,-0.04,0.02,0,-0.02
06/08/2023 19:55:48,-0.76,3.59,-0.1,-0.01,-0.03,0
06/08/2023 19:55:48,-0.37,-0.65,1.11,0.07,0.1,-0.04
06/08/2023 19:55:49,-0.23,2.72,1.36,-0.02,-0.01,-0.02
06/08/2023 19:55:49,-0.20,2.31,-0.06,-0.01,0.03,-0.03
06/08/2023 19:55:50,-0.05,2.52,-0.36,0,0.03,-0.03
06/08/2023 19:55:50,-0.28,2.22,0.08,0,0.06,-0.01
06/08/2023 19:55:51, 0.02,2.11,-0.22,0,0.02,-0.01
06/08/2023 19:55:51,-0.38,2.07,-0.05,-0.01,0.05,-0.01
06/08/2023 19:55:52,-0.14,2.01,-0.05,-0.02,0.05,0
06/08/2023 19:55:52,-0.55,2.39,0.22,0.03,0.02,0.01
06/08/2023 19:55:53,-0.04,2.24,0,-0.03,0.04,0
06/08/2023 19:55:53, 0.01,2.22,0.06,-0.01,0.04,-0.02
06/08/2023 19:55:54, 0.19,2.27,0.23,-0.01,-0.01,-0.05
06/08/2023 19:55:54,-0.29,2.23,0.23,0.03,-0.01,-0.03
06/08/2023 19:55:55, 0.21,2.2,0.18,0,0,-0.03
06/08/2023 19:55:55,-0.04,2.14,-0.14,-0.01,0.02,-0.03
06/08/2023 19:55:56,-0.83,2.16,0.52,0.02,-0.07,-0.01
06/08/2023 19:55:56, 0.29,2.25,0.6,-0.05,-0.08,0
06/08/2023 19:55:57,-0.46,2.16,0.04,0.02,-0.05,0
06/08/2023 19:55:57,-0.24,1.87,0.15,-0.01,-0.01,-0.01
06/08/2023 19:55:58,-0.34,2.35,0.13,0.02,-0.03,0
06/08/2023 19:55:58,-0.93,1.92,0.66,-0.02,-0.03,0
06/08/2023 19:55:59,-1.30,2.08,1.12,0,-0.02,-0.02
06/08/2023 19:55:59,-0.34,2.25,0.21,0.03,0.03,-0.01
06/08/2023 19:56:00,-0.32,2.22,0.27,0,0.03,-0.03
06/08/2023 19:56:00,-0.24,2.19,0.2,-0.01,0.03,-0.02
06/08/2023 19:56:01, 0.05,2.38,0.09,0.01,0.01,-0.01
06/08/2023 19:56:01,-0.28,2.37,0.09,0,0,-0.03
06/08/2023 19:56:02, 0.10,2.42,0.14,0.01,0.05,-0.01
06/08/2023 19:56:02,-0.17,2.39,0.17,-0.03,0.03,-0.01
06/08/2023 19:56:03,-0.29,2.18,-0.32,0,0.02,-0.01
06/08/2023 19:56:03,-0.44,2.25,0.05,-0.01,0.04,-0.02
06/08/2023 19:56:04,-0.06,2.7,0.11,-0.01,0.03,-0.03
06/08/2023 19:56:04,-0.17,2.71,0.25,-0.01,0.01,-0.01
06/08/2023 19:56:05,-0.32,2.52,0.26,0.01,0,-0.03
06/08/2023 19:56:05,-0.37,2.45,0.21,-0.01,0.02,-0.03
06/08/2023 19:56:06, 0.01,2.48,0.01,0,0.03,-0.03
06/08/2023 19:56:06,-0.06,2.18,0.32,-0.01,0.02,-0.02
06/08/2023 19:56:07,-0.12,2.15,0.09,0,0.03,-0.02
06/08/2023 19:56:07,-0.29,2.77,-0.16,0,0,-0.02
06/08/2023 19:56:08,-0.18,2.74,0.1,-0.01,0.03,-0.02
06/08/2023 19:56:08,-0.30,2.51,-0.06,-0.01,0.01,-0.02
06/08/2023 19:56:09,-0.70,2.48,0.14,-0.01,0.01,-0.03
06/08/2023 19:56:09,-0.36,3.6,-0.3,0.01,0.02,-0.02
06/08/2023 19:56:10,-0.15,4.23,-0.18,-0.01,0.02,-0.02
06/08/2023 19:56:10,-0.28,2.69,-0.33,-0.02,0.04,-0.01
06/08/2023 19:56:11,-0.53,2.92,-0.12,0.02,0,-0.02
06/08/2023 19:56:11,-0.44,2.32,-0.28,-0.03,0.03,-0.02
06/08/2023 19:56:12,-0.54,2.41,0.26,-0.03,0.05,-0.02
06/08/2023 19:56:12,-0.37,1.87,0.53,-0.01,0.06,-0.02
06/08/2023 19:56:13,-0.17,1.36,0.04,0.03,-0.01,-0.02
06/08/2023 19:56:13,-0.39,2.05,0.72,-0.04,0.01,-0.03
06/08/2023 19:56:14,-0.17,1.97,0.17,-0.01,0.04,-0.04
06/08/2023 19:56:14,-0.30,2.14,0.04,0,0.01,-0.06
06/08/2023 19:56:15,-0.14,2.34,0.2,0.01,0.01,-0.1
06/08/2023 19:56:15,-0.18,2.23,0.25,0.01,0.02,-0.13
06/08/2023 19:56:16,-0.27,2.13,0.13,0.01,-0.01,-0.12
06/08/2023 19:56:16,-0.62,2.25,0.44,0.03,-0.04,-0.12
06/08/2023 19:56:17,-0.73,2.64,-0.32,0,0.02,-0.13
06/08/2023 19:56:17,-0.39,3.05,-0.23,0.02,-0.04,-0.14
06/08/2023 19:56:18,-0.72,4.09,0.47,-0.03,-0.06,-0.23
06/08/2023 19:56:18, 0.89,4,-0.78,0.03,-0.05,-0.35
06/08/2023 19:56:19, 0.97,2.63,0.56,0.01,-0.14,-0.41
06/08/2023 19:56:19, 0.85,4.21,-0.18,0.07,-0.1,-0.4
06/08/2023 19:56:20, 0.61,2.76,-0.13,-0.03,-0.07,-0.32
06/08/2023 19:56:20, 0.13,3.51,-0.08,0.02,-0.01,-0.19
06/08/2023 19:56:21,-0.28,3.47,-0.05,0.01,0.04,-0.08
06/08/2023 19:56:21,-0.19,3.98,-0.3,0.01,0,-0.03
06/08/2023 19:56:22,-0.34,3.78,-0.56,-0.03,-0.02,-0.03
06/08/2023 19:56:22,-0.30,3.62,-0.51,-0.01,0.07,-0.04
06/08/2023 19:56:23,-0.44,2.65,0.29,0,0,-0.02
06/08/2023 19:56:23,-0.22,4.16,-0.34,0.02,-0.01,-0.02
06/08/2023 19:56:24,-0.39,3.19,0,-0.04,0,-0.02
06/08/2023 19:56:24,-0.37,3.68,0.06,-0.02,-0.01,-0.01
06/08/2023 19:56:25,-0.15,2.82,-0.16,-0.02,-0.02,0
06/08/2023 19:56:25,-0.17,2.55,-0.09,-0.02,0,-0.01
06/08/2023 19:56:26, 0.23,2.53,1.24,-0.01,0.02,-0.03
06/08/2023 19:56:26,-0.02,2.23,-0.33,-0.12,0,-0.02
06/08/2023 19:56:27,-0.08,2.47,0.2,-0.05,0.01,-0.01
06/08/2023 19:56:27,-0.04,2.57,0.14,0,0.04,-0.02
06/08/2023 19:56:28,-0.12,1.97,0.33,0,0.04,-0.02
06/08/2023 19:56:28,-0.04,1.73,0.35,-0.05,0.01,-0.01
06/08/2023 19:56:29,-0.14,1.61,0.46,0,0,0.01
06/08/2023 19:56:29,-0.17,1.71,0.18,-0.01,0.02,0.02
06/08/2023 19:56:30,-0.24,1.8,0.38,-0.02,0.01,0.04
06/08/2023 19:56:30,-0.40,2.92,0.21,0.02,0.04,0.09
06/08/2023 19:56:31,-0.59,2.89,0.23,0.01,0.08,0.18
06/08/2023 19:56:31,-1.02,2.96,-0.19,0.01,0.11,0.21
06/08/2023 19:56:32,-1.16,3.11,0.43,0.01,0.08,0.24
06/08/2023 19:56:32,-1.14,3.01,0.22,-0.05,0.09,0.2
06/08/2023 19:56:33,-0.96,2.97,0.13,-0.01,0.09,0.16
06/08/2023 19:56:33,-1.16,2.97,-0.64,-0.07,0.09,0.12
06/08/2023 19:56:34,-0.68,2.77,0.04,-0.08,0.08,0.03
06/08/2023 19:56:34,-0.13,3.33,0.2,0.03,-0.04,-0.04
06/08/2023 19:56:35,-0.38,2.71,-0.41,0.04,0.04,-0.02
06/08/2023 19:56:35,-0.31,3.26,-0.06,-0.02,0.01,-0.01
06/08/2023 19:56:36,-0.61,3.15,-0.01,-0.02,0.06,-0.01
06/08/2023 19:56:36,-0.56,2.6,-0.25,-0.03,0.01,-0.01
06/08/2023 19:56:37, 0.01,2.34,-0.24,-0.03,0.06,-0.01
06/08/2023 19:56:37,-0.42,2.66,0.04,0,0.03,0
06/08/2023 19:56:38,-0.14,2.57,-0.05,0,0.01,-0.01
06/08/2023 19:56:38,-0.32,3.46,-0.2,-0.07,0.03,-0.02
06/08/2023 19:56:39,-0.32,3.27,0.12,-0.02,0.03,-0.01
06/08/2023 19:56:39,-0.41,3.2,0.05,0,0.03,-0.01
06/08/2023 19:56:40, 0.15,2.85,-0.55,0.02,0.01,-0.02
06/08/2023 19:56:40,-0.39,2.89,-0.89,-0.04,-0.04,-0.02
06/08/2023 19:56:41,-0.50,2.62,-0.32,-0.04,0.03,-0.02
06/08/2023 19:56:41,-0.56,2.83,0.07,-0.01,0.01,-0.01
06/08/2023 19:56:42,-0.13,2.84,0.17,0,0.04,0
06/08/2023 19:56:42,-0.61,2.67,-0.1,-0.02,0,0
06/08/2023 19:56:43,-0.32,2.91,-0.29,-0.02,-0.05,0.01
06/08/2023 19:56:43,-0.33,2.66,-0.21,-0.05,0.03,0
06/08/2023 19:56:44,-0.25,2.47,0.21,-0.02,0.02,0.01
06/08/2023 19:56:44,-0.33,2.72,0.71,-0.02,-0.04,-0.01
06/08/2023 19:56:45, 0.03,2.43,-0.15,-0.03,0.02,-0.01
06/08/2023 19:56:45, 0.16,2.46,0.12,0.01,0,0.01
06/08/2023 19:56:46,-0.14,2.36,0.04,-0.06,0.06,0
06/08/2023 19:56:46, 0.10,2.15,0.23,0,0.05,0
06/08/2023 19:56:47,-0.00,2.13,0.13,-0.01,-0.02,0.01
06/08/2023 19:56:47,-0.44,2.18,-0.27,0,-0.04,0.01
06/08/2023 19:56:48, 0.04,2.49,-0.04,0,0.02,0
06/08/2023 19:56:48, 0.40,2.19,1.17,0.01,0.01,0.01
06/08/2023 19:56:49, 0.45,1.73,0.52,-0.03,-0.05,0
06/08/2023 19:56:49,-0.02,1.46,-0.77,-0.12,-0.01,0.01
06/08/2023 19:56:50, 0.28,1.97,0.26,-0.03,0.02,-0.02
06/08/2023 19:56:50, 0.09,2.11,0.49,-0.03,0.05,-0.01
06/08/2023 19:56:51,-0.14,3.09,0.02,0,0,-0.01
06/08/2023 19:56:51, 0.22,2.51,0.15,-0.04,0.01,0
06/08/2023 19:56:52, 0.56,2.41,0.24,0.01,0.03,-0.01
06/08/2023 19:56:52,-0.29,2.3,0.42,-0.06,0.08,-0.01
06/08/2023 19:56:53,-0.03,2.79,0.52,0.09,0.05,0
06/08/2023 19:56:53,-0.35,2.09,-0.73,0.1,0,-0.01
06/08/2023 19:56:54,-0.19,2.66,-0.41,-0.03,-0.06,-0.01
06/08/2023 19:56:54,-0.52,3.29,0.29,0.02,0.04,0.03
06/08/2023 19:56:55,-0.11,3.07,-0.13,-0.03,0.01,0.02
06/08/2023 19:56:55, 0.01,3.28,-0.56,0,-0.02,0.02
06/08/2023 19:56:56,-0.63,3.4,-0.09,-0.02,0.03,0.02
06/08/2023 19:56:56,-0.32,2.94,0,0.01,-0.02,0.03
06/08/2023 19:56:57,-0.09,2.44,0.55,0.04,0.05,0.02
06/08/2023 19:56:57,-1.14,2.75,0.43,-0.16,-0.17,0.03
06/08/2023 19:56:58,-0.02,2.73,0.67,0.04,0.03,-0.03
06/08/2023 19:56:58, 0.65,2.6,-0.83,-0.04,-0.04,-0.05
06/08/2023 19:56:59, 0.61,2.74,-0.04,-0.01,-0.09,-0.01
06/08/2023 19:56:59, 1.05,2.51,0.41,0,0.06,-0.04
06/08/2023 19:57:00, 0.34,1.47,0.01,0,0.05,-0.02
06/08/2023 19:57:00, 0.30,1.74,0.25,-0.04,0.03,0
06/08/2023 19:57:01, 0.07,1.6,0.49,-0.01,0.06,0.01
06/08/2023 19:57:01,-0.36,1.15,0.47,0.01,0.02,0.05
06/08/2023 19:57:02,-0.53,1.1,0.26,-0.02,0.02,0.09
06/08/2023 19:57:02,-0.76,1,0.5,-0.02,0.04,0.17
06/08/2023 19:57:03,-1.21,2.28,0.22,0.05,0.14,0.3
06/08/2023 19:57:03,-2.10,2.25,-0.68,-0.04,0.09,0.4
06/08/2023 19:57:04,-1.64,3.29,-1.15,0.06,0.02,0.4
06/08/2023 19:57:04,-1.06,2.89,0.05,0,0.21,0.32
06/08/2023 19:57:05,-1.02,3.69,0.21,-0.09,0.07,0.15
06/08/2023 19:57:05,-0.57,3.61,0.11,0.02,-0.04,0.09
06/08/2023 19:57:06, 0.57,2.75,-0.92,-0.02,-0.08,0
06/08/2023 19:57:06,-0.33,2.36,0.49,-0.1,0.02,-0.01
06/08/2023 19:57:07,-0.32,2.3,0.14,-0.03,-0.06,-0.01
06/08/2023 19:57:07,-0.37,2.08,-0.51,0.05,0.18,-0.04
06/08/2023 19:57:08,-1.53,1.19,1.19,0.03,0.01,-0.09
06/08/2023 19:57:08,-1.02,3.44,1.7,-0.05,-0.01,-0.04
06/08/2023 19:57:09,-0.17,2.94,0.77,0,0.1,0.01
06/08/2023 19:57:09, 0.02,2.76,0.58,-0.02,0.05,-0.02
06/08/2023 19:57:10,-0.16,2.54,0.29,0.06,-0.08,-0.01
06/08/2023 19:57:10,-0.70,2.62,0.8,-0.1,-0.15,-0.01
06/08/2023 19:57:11, 0.29,1.58,-0.36,0.05,-0.15,-0.01
06/08/2023 19:57:11, 0.36,1.39,0.29,-0.02,0.09,-0.02
06/08/2023 19:57:12, 0.09,2.29,-0.37,-0.07,0.1,-0.02
06/08/2023 19:57:12,-1.29,2.33,0.22,-0.01,0.08,-0.02
06/08/2023 19:57:13, 0.23,3.18,-0.67,0,0.02,-0.02
06/08/2023 19:57:13,-0.27,2.72,-0.03,0.01,-0.03,0
06/08/2023 19:57:14,-0.45,2.82,-0.4,0.01,0.02,0
06/08/2023 19:57:14, 0.21,2.19,-0.13,-0.04,0.01,-0.04
06/08/2023 19:57:15,-1.24,2.56,-0.55,-0.05,-0.17,0.05
06/08/2023 19:57:15,-0.55,2.72,0.07,0.15,-0.3,0.05
06/08/2023 19:57:16,-1.40,3.1,-0.63,0.04,0.07,0.02
06/08/2023 19:57:16,-0.49,2.57,-0.01,0.04,0.12,-0.03
06/08/2023 19:57:17,-0.50,2.56,-0.35,-0.06,0.06,-0.05
06/08/2023 19:57:17,-0.14,2.7,0.25,-0.02,0.01,-0.03
06/08/2023 19:57:18,-0.23,2.87,-0.37,0,-0.1,-0.03
06/08/2023 19:57:18, 0.58,2.87,0.54,0.05,0.01,-0.04
06/08/2023 19:57:19,-0.17,2.35,-0.16,-0.04,-0.11,-0.01
06/08/2023 19:57:19, 0.58,2.44,0.11,0,0.16,-0.05
06/08/2023 19:57:20, 0.32,2.45,-0.51,-0.01,0.09,-0.04
06/08/2023 19:57:20,-0.80,1.43,-0.76,-0.04,0.04,-0.06
06/08/2023 19:57:21,-0.81,1.18,-0.42,0.01,-0.01,-0.04
06/08/2023 19:57:21,-0.57,1.55,-0.31,-0.02,-0.04,-0.03
06/08/2023 19:57:22,-1.06,0.89,0.65,0.01,0.05,-0.01
06/08/2023 19:57:22,-0.94,2.02,-0.62,-0.03,0.01,0
06/08/2023 19:57:23,-0.69,2.25,-0.18,0.09,0,0.02
06/08/2023 19:57:23,-0.79,1.81,0.59,-0.09,0.07,0.02
06/08/2023 19:57:24,-0.24,1.38,0.02,0.04,0.03,0
06/08/2023 19:57:24, 0.21,1.75,0.42,0.02,0.01,0.03
06/08/2023 19:57:25,-1.20,2.09,-1.16,0.07,0.33,0.13
06/08/2023 19:57:25,-0.30,2.25,0.04,0,-0.01,0.13
06/08/2023 19:57:26,-0.48,2.2,-0.28,-0.02,0.03,0.12
06/08/2023 19:57:26,-0.43,2.44,0.2,-0.03,0.14,0.12
06/08/2023 19:57:27,-0.61,2.42,0.42,-0.02,0.08,0.11
06/08/2023 19:57:27,-0.02,2.46,0,-0.02,0.09,0.16
06/08/2023 19:57:28,-0.91,3.95,0.23,-0.03,0.15,0.22
06/08/2023 19:57:28,-0.82,3.87,-0.04,0.05,0.08,0.27
06/08/2023 19:57:29,-1.10,4.27,-0.87,-0.03,0.05,0.26
06/08/2023 19:57:29,-0.77,3.98,-0.72,-0.02,0.08,0.18
06/08/2023 19:57:30,-0.59,2.6,-0.24,-0.06,0.08,0.12
06/08/2023 19:57:30,-0.46,3.49,-0.35,0.01,0.07,0.06
06/08/2023 19:57:31,-0.39,4.23,-0.5,-0.04,0.09,0.06
06/08/2023 19:57:31,-0.35,3.66,-0.24,-0.01,0.03,0.04
06/08/2023 19:57:32,-0.20,3.7,-0.42,-0.01,0.07,0
06/08/2023 19:57:32,-0.08,3.54,-0.55,0.06,0.01,-0.01
06/08/2023 19:57:33,-0.06,3.25,0.08,0.03,0.04,-0.06
06/08/2023 19:57:33,-0.24,2.62,-0.72,-0.03,0.05,-0.05
06/08/2023 19:57:34,-0.80,2.49,-0.01,-0.03,0.05,0
06/08/2023 19:57:34,-1.03,2.49,-0.1,-0.01,0.02,0.03
06/08/2023 19:57:35,-1.36,2.52,0.42,-0.02,0,0.03
06/08/2023 19:57:35,-1.06,2.41,0.11,-0.04,0.01,0.02
06/08/2023 19:57:36,-0.76,1.96,0.23,0.01,0.01,-0.01
06/08/2023 19:57:36,-0.70,1.99,0.2,-0.02,0.02,-0.02
06/08/2023 19:57:37,-0.70,2.14,0.26,-0.02,0.03,-0.01
06/08/2023 19:57:37,-0.08,2.53,0.5,-0.02,0.04,-0.08
06/08/2023 19:57:38,-0.31,2.65,0.59,0,0.03,-0.08
06/08/2023 19:57:38,-0.42,2.45,0.07,0.01,-0.04,-0.03
06/08/2023 19:57:39,-0.36,2.05,0.7,0.07,-0.08,-0.08
06/08/2023 19:57:39, 0.93,2.37,-0.34,-0.13,-0.02,-0.18
06/08/2023 19:57:40, 0.49,3.29,0.3,-0.03,-0.02,-0.15
06/08/2023 19:57:40, 0.38,2.99,0.11,0.03,-0.01,-0.13
06/08/2023 19:57:41, 0.01,2.7,0.43,0.04,0.07,-0.11
06/08/2023 19:57:41, 0.38,2.68,-0.45,-0.02,0,-0.08
06/08/2023 19:57:42, 0.17,2.25,-0.62,0.01,-0.04,-0.09
06/08/2023 19:57:42, 0.07,2.23,0.24,-0.03,-0.03,-0.07
06/08/2023 19:57:43,-0.08,1,0.32,-0.01,0.01,-0.08
06/08/2023 19:57:43,-0.15,1.47,0.77,-0.01,0.01,-0.07
06/08/2023 19:57:44,-0.29,1.32,0.24,0,0.02,-0.07
06/08/2023 19:57:44,-0.28,1.31,0.13,-0.01,0.01,-0.06
06/08/2023 19:57:45, 0.17,1.36,0.44,-0.01,-0.04,-0.11
06/08/2023 19:57:45, 0.62,0.71,0.56,0,-0.03,-0.2
06/08/2023 19:57:46, 0.77,0.54,0.65,-0.01,-0.04,-0.29
06/08/2023 19:57:46, 1.77,2.08,0.54,0.05,-0.12,-0.44
06/08/2023 19:57:47, 1.56,2.15,0.55,0.04,-0.11,-0.55
06/08/2023 19:57:47, 2.02,3.24,-0.16,0.11,-0.31,-0.5
06/08/2023 19:57:48, 1.58,4.06,0.31,0.03,-0.12,-0.55
06/08/2023 19:57:48, 0.66,3.54,-0.25,0.02,-0.05,-0.41
06/08/2023 19:57:49, 0.34,3.69,-0.15,0,-1.37,-0.2
06/08/2023 19:57:49, 0.71,3.66,-0.16,0,0,-0.13
06/08/2023 19:57:50, 0.88,3.33,-0.14,-0.01,0,-0.11
06/08/2023 19:57:50, 0.58,2.56,0.1,-0.01,0.01,-0.08
06/08/2023 19:57:51, 0.09,1.98,0.09,0,0.03,-0.02
06/08/2023 19:57:51,-0.32,1.15,0.25,-0.01,0.05,0.09
06/08/2023 19:57:52,-0.89,1.05,0.38,-0.02,0.1,0.18
06/08/2023 19:57:52,-1.06,0.61,0.86,-0.04,0.11,0.24
06/08/2023 19:57:53,-0.84,0.45,0.76,-0.02,0.14,0.24
06/08/2023 19:57:53,-0.59,1.8,-0.24,0,0.09,0.15
06/08/2023 19:57:54,-0.20,1.74,0.26,0.01,0.08,0.11
06/08/2023 19:57:54,-0.21,1.93,0.16,0,0.06,0.08
06/08/2023 19:57:55,-0.34,2.13,0.86,-0.02,0.07,0.04
06/08/2023 19:57:55,-0.19,2.1,0.18,-0.02,0.06,-0.01
06/08/2023 19:57:56,-0.28,2.76,0.06,0,0.01,-0.02
06/08/2023 19:57:56,-0.14,2.78,-0.01,-0.01,0.01,-0.01
06/08/2023 19:57:57,-0.20,2.8,0.01,-0.01,0.02,-0.02
06/08/2023 19:57:57,-0.20,2.78,-0.01,-0.01,0.02,-0.02
06/08/2023 19:57:58,-0.22,2.78,0.02,0,0.02,-0.02
06/08/2023 19:57:58,-0.32,2.79,0.12,-0.04,0.05,-0.02
06/08/2023 19:57:59,-0.21,2.86,0.06,0,0.02,-0.02
06/08/2023 19:57:59,-0.17,2.79,-0.02,0,0.02,-0.02
06/08/2023 19:58:00,-0.21,2.8,-0.01,-0.01,0.02,-0.02
06/08/2023 19:58:00,-0.18,2.81,-0.08,-0.02,0.01,-0.01
06/08/2023 19:58:01,-0.21,2.78,0.01,-0.01,0.02,-0.02
06/08/2023 19:58:01,-0.17,2.77,0,-0.01,0.02,-0.02
06/08/2023 19:58:02,-0.23,2.79,0.03,-0.01,0.02,-0.02
06/08/2023 19:58:02,-0.24,2.78,0.01,-0.01,0.02,-0.02
06/08/2023 19:58:03,-0.22,2.78,0.02,-0.01,0.02,-0.02
06/08/2023 19:58:03,-0.23,2.78,0.02,-0.01,0.02,-0.02
06/08/2023 19:58:04,-0.20,2.79,-0.02,-0.01,0.02,-0.02
06/08/2023 19:58:04,-0.20,2.76,-0.01,-0.01,0.02,-0.02
06/08/2023 19:58:05,-0.18,2.77,-0.02,-0.01,0.02,-0.02
06/08/2023 19:58:05,-0.19,2.77,-0.03,-0.01,0.02,-0.02
06/08/2023 19:58:06,-0.19,2.77,-0.01,-0.01,0.02,-0.02
06/08/2023 19:58:06,-0.17,2.77,-0.01,-0.01,0.02,-0.02
06/08/2023 19:58:07,-0.21,2.77,-0.03,-0.01,0.02,-0.02
06/08/2023 19:58:07,-0.19,2.76,-0.01,0,0.02,-0.02
06/08/2023 19:58:08,-0.24,2.8,0.05,-0.01,0.02,-0.02
06/08/2023 19:58:08,-0.23,2.79,0.02,-0.01,0.02,-0.02
06/08/2023 19:58:09,-0.21,2.79,0.02,-0.01,0.02,-0.02
06/08/2023 19:58:09,-0.24,2.81,0.05,-0.01,0.02,-0.02
06/08/2023 19:58:10,-0.21,2.79,0.01,-0.01,0.02,-0.02
06/08/2023 19:58:10,-0.21,2.77,0,-0.01,0.02,-0.02
06/08/2023 19:58:11,-0.20,2.77,-0.02,-0.01,0.03,-0.02
06/08/2023 19:58:11,-0.20,2.77,-0.03,-0.01,0.02,-0.02
06/08/2023 19:58:12,-0.18,2.77,-0.04,-0.01,0.02,-0.02
06/08/2023 19:58:12,-0.15,2.76,-0.03,-0.01,0.02,-0.02
06/08/2023 19:58:13,-0.20,2.77,-0.01,-0.01,0.02,-0.02
06/08/2023 19:58:13,-0.19,2.79,0,-0.01,0.02,-0.02
06/08/2023 19:58:14,-0.22,2.79,0.02,-0.01,0.02,-0.02
06/08/2023 19:58:14,-0.20,2.79,0,-0.01,0.02,-0.02
06/08/2023 19:58:15,-0.23,2.78,0.01,-0.01,0.02,-0.02
06/08/2023 19:58:15,-0.25,2.52,0.02,-0.01,0.01,-0.03
06/08/2023 19:58:16,-0.30,2.91,0.05,0.01,0.03,-0.04
06/08/2023 19:58:16,-0.24,3.75,-0.26,0,0.02,-0.01
06/08/2023 19:58:17,-0.24,4.07,-0.36,-0.01,0.05,0.05
06/08/2023 19:58:17,-0.66,2.56,0.03,-0.02,0.04,0.09
06/08/2023 19:58:18,-0.34,3.47,-0.04,0,0.06,0.08
06/08/2023 19:58:18,-0.50,3.88,-0.13,-0.02,0.05,0.1
06/08/2023 19:58:19, 0.06,3.48,-0.52,-0.03,0.04,0.08
06/08/2023 19:58:19,-0.27,3.08,-0.5,0.02,0.04,0.04
06/08/2023 19:58:20,-0.31,3.74,-0.15,0.02,0.04,0.04
06/08/2023 19:58:20,-0.39,3.77,-0.57,-0.04,0.08,0.05
06/08/2023 19:58:21,-0.59,2.3,0.07,-0.01,0.05,0.06
06/08/2023 19:58:21,-0.57,3.27,-0.1,-0.02,0.04,0.06
06/08/2023 19:58:22,-0.82,3.8,-0.51,-0.06,0.05,0.09
06/08/2023 19:58:22,-1.71,3.4,0.05,0.01,0.04,0.13
06/08/2023 19:58:23,-1.93,3.96,0.74,-0.06,0.01,0.24
06/08/2023 19:58:23,-1.82,3.73,-0.51,0.02,0.07,0.25
06/08/2023 19:58:24,-1.95,3.86,-0.4,0.08,0,0.25
06/08/2023 19:58:24,-1.16,3.64,-0.42,0.07,0.03,0.12
06/08/2023 19:58:25,-1.25,4.12,-0.56,-0.01,0.11,0.04
06/08/2023 19:58:25,-0.24,4.17,-0.29,0.04,-0.03,0.03
06/08/2023 19:58:26,-0.50,3.82,-0.95,-0.02,0.06,0
06/08/2023 19:58:26,-0.29,2.1,-0.57,0.01,0.05,-0.01
06/08/2023 19:58:27,-0.35,3.74,-0.46,-0.02,-0.01,-0.01
06/08/2023 19:58:27,-0.47,4.53,1.05,0.05,0.09,-0.03
06/08/2023 19:58:28,-0.34,2.01,-0.54,-0.04,0.02,-0.03
06/08/2023 19:58:28,-0.91,1.78,0.99,0.08,-0.01,-0.02
06/08/2023 19:58:29,-0.41,1.31,-0.8,0.02,0.08,-0.03
06/08/2023 19:58:29,-0.95,0.91,-0.77,-0.05,0.03,-0.03
06/08/2023 19:58:30,-0.95,0.87,0.29,-0.01,-0.03,-0.02
06/08/2023 19:58:30,-0.64,1.08,0.63,-0.03,0,-0.02
06/08/2023 19:58:31,-0.51,1.07,0.5,0.03,0.04,-0.04
06/08/2023 19:58:31,-0.36,0.62,0.08,-0.04,0.06,-0.05
06/08/2023 19:58:32, 0.17,0.34,0.08,0,0.02,-0.03
06/08/2023 19:58:32,-0.25,0.97,0.33,-0.01,0,-0.02
06/08/2023 19:58:33,-0.32,1.41,0.4,-0.01,0.02,-0.02
06/08/2023 19:58:33,-0.37,1.7,0.3,-0.01,0.02,-0.02
06/08/2023 19:58:34,-0.31,1.8,0.23,-0.01,0.03,-0.02
06/08/2023 19:58:34,-0.34,2.36,0.02,0,0.02,-0.02
06/08/2023 19:58:35,-0.29,2.71,0.04,-0.01,0.02,-0.02
06/08/2023 19:58:35,-0.29,2.72,0.03,-0.01,0.03,-0.02
06/08/2023 19:58:36,-0.30,2.71,0.03,-0.01,0.02,-0.02
06/08/2023 19:58:36,-0.27,2.68,-0.01,-0.01,0.02,-0.02
06/08/2023 19:58:37,-0.29,2.69,-0.02,-0.01,0.02,-0.02
06/08/2023 19:58:37,-0.32,2.7,0.03,-0.01,0.02,-0.02
06/08/2023 19:58:38,-0.32,2.7,0.03,-0.01,0.03,-0.02
06/08/2023 19:58:38,-0.29,2.69,-0.02,-0.01,0.02,-0.02
06/08/2023 19:58:39,-0.29,2.68,-0.02,-0.01,0.02,-0.02
06/08/2023 19:58:39,-0.27,2.67,-0.01,-0.01,0.02,-0.02
06/08/2023 19:58:40,-0.28,2.67,0.01,-0.01,0.02,-0.02
06/08/2023 19:58:40,-0.28,2.71,0,-0.01,0.02,-0.02
06/08/2023 19:58:41,-0.29,2.71,0.03,-0.01,0.02,-0.02
06/08/2023 19:58:41,-0.31,2.73,0.01,-0.01,0.02,-0.02
06/08/2023 19:58:42,-0.29,2.71,0.03,-0.01,0.02,-0.02
06/08/2023 19:58:42,-0.29,2.71,0.04,-0.01,0.02,-0.02
06/08/2023 19:58:43,-0.31,2.72,0.04,-0.01,0.02,-0.02
06/08/2023 19:58:43,-0.35,2.73,0.05,-0.01,0.02,-0.02
06/08/2023 19:58:44,-0.32,2.71,0.05,-0.01,0.02,-0.02
06/08/2023 19:58:44,-0.30,2.72,0.07,-0.01,0.02,-0.02
06/08/2023 19:58:45,-0.33,2.72,0.03,-0.01,0.02,-0.02
06/08/2023 19:58:45,-0.30,2.69,0.01,-0.01,0.02,-0.02
06/08/2023 19:58:46,-0.30,2.67,0,-0.01,0.02,-0.02
06/08/2023 19:58:46,-0.28,2.69,-0.01,-0.01,0.02,-0.02
06/08/2023 19:58:47,-0.29,2.69,-0.03,-0.01,0.02,-0.02
06/08/2023 19:58:47,-0.28,2.69,0,-0.01,0.02,-0.02
06/08/2023 19:58:48,-0.27,2.69,0.02,-0.01,0.02,-0.02
06/08/2023 19:58:48,-0.28,2.7,0.02,-0.01,0.02,-0.02
06/08/2023 19:58:49,-0.28,2.7,0,-0.01,0.02,-0.02
06/08/2023 19:58:49,-0.28,2.7,0.02,-0.01,0.02,-0.02
06/08/2023 19:58:50,-0.30,2.72,0.01,-0.01,0.02,-0.02
06/08/2023 19:58:50,-0.31,2.72,0.01,-0.01,0.02,-0.02
06/08/2023 19:58:51,-0.30,2.7,0.05,-0.01,0.02,-0.02
06/08/2023 19:58:51,-0.29,2.72,0.02,-0.01,0.02,-0.02
06/08/2023 19:58:52,-0.31,2.73,0.05,-0.01,0.02,-0.02
06/08/2023 19:58:52,-0.31,2.71,0.06,-0.01,0.02,-0.02
06/08/2023 19:58:53,-0.31,2.72,0.06,-0.01,0.02,-0.02
06/08/2023 19:58:53,-0.33,2.72,0.06,-0.01,0.02,-0.02
06/08/2023 19:58:54,-0.32,2.7,0.03,-0.01,0.02,-0.02
06/08/2023 19:58:54,-0.30,2.68,0,-0.01,0.02,-0.02
